accelX, accelY, accelZ, gyroX, gyroY, gyroZ
-157,1000,121,-36,-14,34
-158,1006,131,-33,-13,34
-163,1006,125,-36,-13,36
-165,995,139,-36,-12,35
-159,1009,125,-35,-11,36
-156,1009,131,-36,-9,36
-154,999,131,-35,-8,37
-150,999,132,-37,-5,38
-150,1000,129,-35,-5,39
-164,987,126,-37,-6,40
-152,1006,120,-37,-4,39
-159,994,120,-37,-6,38
-152,999,128,-38,-6,41
-154,999,129,-36,-4,41
-152,998,129,-39,-5,40
-156,1002,126,-39,-5,40
-150,999,132,-37,-4,40
-144,1002,129,-39,-7,40
-154,998,134,-38,-6,38
-152,1005,116,-38,-7,36
-162,1005,131,-37,-11,36
-151,996,125,-36,-12,35
-154,988,123,-38,-12,34
-152,1009,115,-38,-14,35
-139,1005,115,-38,-16,32
-140,1002,138,-39,-17,31
-156,1009,125,-36,-16,29
-147,1009,121,-36,-19,27
-147,1005,134,-35,-18,23
-145,999,133,-35,-18,22
-145,999,112,-35,-19,21
-154,996,138,-35,-21,22
-148,1011,128,-36,-16,19
-148,1009,125,-33,-16,18
-135,1009,129,-33,-19,13
-142,1002,126,-34,-14,15
-142,1006,134,-32,-15,12
-141,995,132,-34,-13,12
-130,995,122,-33,-13,12
-141,1006,129,-31,-15,10
-151,1012,120,-32,-11,10
-141,994,133,-30,-12,11
-145,1012,132,-30,-11,11
-135,993,140,-31,-10,9
-142,1007,122,-31,-11,9
-142,999,128,-28,-13,9
-127,994,131,-28,-12,12
-151,994,129,-27,-13,9
-148,994,134,-27,-14,11
-134,989,110,-27,-14,10
-142,993,125,-26,-15,9
-134,989,115,-24,-18,8
-144,998,125,-24,-15,9
-148,1000,132,-24,-14,8
-145,1007,114,-23,-15,8
-150,990,106,-21,-15,7
-156,1000,137,-21,-14,7
-148,1002,131,-19,-11,8
-145,1006,132,-21,-13,4
-140,1002,126,-20,-12,5
-142,995,131,-21,-13,3
-154,1015,125,-20,-10,5
-147,1009,126,-23,-11,2
-156,1007,134,-22,-10,-1
-151,1004,134,-24,-11,-2
-145,1011,132,-25,-11,-2
-151,999,146,-27,-10,-4
-148,999,128,-29,-12,-5
-150,1015,152,-29,-14,-6
-147,1006,129,-31,-14,-7
-148,1016,129,-31,-17,-9
-154,1000,140,-34,-17,-8
-157,1007,146,-33,-20,-9
-147,1006,126,-33,-21,-11
-154,1011,126,-36,-24,-9
-152,995,126,-35,-23,-11
-156,1000,116,-36,-24,-12
-165,1004,134,-34,-25,-11
-156,998,139,-35,-23,-10
-162,998,134,-33,-25,-11
-154,1013,129,-32,-24,-10
-148,1013,138,-32,-24,-10
-157,994,110,-30,-21,-11
-147,984,116,-30,-24,-9
-147,995,116,-28,-21,-9
-148,1000,122,-27,-17,-9
-151,996,121,-26,-20,-7
-141,994,131,-24,-16,-8
-147,989,128,-22,-14,-7
-154,998,133,-20,-11,-2
-145,994,132,-19,-10,-5
-154,993,117,-18,-6,-3
-150,993,134,-15,-5,-5
-150,1002,126,-16,-2,-1
-148,998,134,-16,-2,-1
-150,998,137,-14,-3,0
-148,998,138,-13,-2,0
-158,1007,125,-15,-4,2
-154,1002,132,-14,-2,1
-158,985,122,-13,-4,1
-154,996,138,-15,-5,3
-145,988,131,-16,-6,3
-158,996,139,-18,-7,1
-152,996,138,-18,-8,4
-147,995,137,-20,-8,3
-152,998,126,-20,-5,5
-159,989,129,-23,-8,5
-144,1000,133,-24,-9,6
-154,988,146,-24,-9,4
-142,1004,149,-27,-12,6
-152,1004,116,-26,-9,6
-145,995,123,-28,-11,6
-148,993,115,-29,-10,6
-159,989,131,-30,-9,3
-151,1009,126,-30,-10,3
-150,994,134,-31,-7,2
-154,999,120,-31,-9,2
-158,979,122,-32,-12,2
-150,999,125,-33,-10,1
-147,1000,122,-31,-12,-1
-148,999,126,-34,-12,-1
-156,988,121,-34,-13,-2
-157,987,129,-35,-11,-2
-150,990,132,-33,-11,-4
-145,999,134,-35,-9,-1
-150,983,125,-34,-8,-3
-150,985,134,-35,-9,-2
-151,984,138,-34,-7,-1
-133,978,125,-36,-5,-2
-157,976,134,-36,-7,-2
-157,1002,126,-36,-8,-2
-163,993,134,-34,-8,-1
-159,993,144,-35,-9,2
-163,995,131,-35,-9,2
-165,985,133,-33,-13,2
-162,993,117,-35,-11,3
-158,994,121,-32,-13,3
-163,985,129,-33,-15,4
-145,982,122,-33,-15,3
-148,995,106,-32,-16,6
-148,995,138,-31,-13,6
-157,987,115,-30,-13,10
-151,989,128,-30,-12,7
-135,977,133,-30,-12,9
-150,987,132,-29,-8,14
-147,987,139,-28,-7,11
-142,982,126,-30,-8,13
-148,993,129,-29,-5,14
-156,994,120,-28,-5,15
-148,984,145,-28,-6,15
-147,1000,133,-28,-3,16
-148,990,126,-28,-2,17
-152,995,134,-31,-1,17
-147,995,126,-28,-1,18
-157,999,123,-29,-1,16
-150,993,131,-30,-2,16
-151,976,125,-30,-3,16
-157,990,137,-31,-1,16
-144,994,140,-32,0,15
-133,999,131,-32,0,15
-152,989,133,-33,-256,17
-148,985,138,-33,3,16
-142,989,132,-34,4,16
-139,993,121,-35,4,19
-134,996,138,-36,5,16
-141,983,139,-35,7,16
-144,993,132,-34,7,16
-134,995,122,-38,8,16
-145,993,142,-35,5,14
-144,993,140,-33,5,15
-141,982,128,-35,2,14
-150,988,150,-34,3,12
-144,990,133,-35,-2,12
-139,990,131,-37,-2,12
-158,987,139,-32,-4,9
-148,990,129,-36,-7,8
-147,994,137,-35,-7,7
-148,982,142,-35,-10,8
-144,995,134,-35,-10,4
-152,1002,131,-33,-11,4
-148,996,144,-34,-11,4
-144,1000,132,-32,-15,3
-144,995,123,-31,-11,5
-139,990,145,-31,-14,0
-136,990,134,-28,-14,0
-152,990,129,-28,-16,1
-154,1000,137,-25,-15,-2
-144,993,131,-23,-15,-1
-158,998,129,-24,-16,-2
-152,999,128,-22,-16,-4
-142,1000,138,-22,-18,-5
-152,995,140,-20,-19,-5
-140,994,121,-18,-18,-4
-154,994,131,-17,-17,-4
-148,998,138,-16,-18,-6
-148,998,146,-17,-19,-5
-150,988,132,-14,-17,-7
-139,994,125,-15,-18,-8
-148,1005,137,-15,-16,-7
-159,987,132,-16,-14,-7
-145,989,138,-15,-13,-6
-145,989,132,-16,-13,-7
-156,994,125,-17,-11,-8
-162,999,125,-15,-12,-6
-152,1002,125,-17,-13,-7
-151,1000,123,-18,-12,-6
-163,1006,133,-20,-13,-5
-162,1005,133,-19,-12,-6
-154,1009,128,-20,-14,-4
-150,1000,126,-23,-12,-7
-164,1009,131,-22,-11,-6
-164,1004,125,-25,-15,-5
-158,999,128,-23,-11,-4
-154,990,131,-28,-12,-3
-157,996,110,-26,-12,-4
-162,996,134,-28,-9,-2
-151,995,131,-30,-8,-1
-158,988,137,-31,-5,-2
-144,995,112,-29,-8,0
-159,987,145,-30,-3,1
-156,998,133,-32,-5,1
-158,995,140,-32,-1,1
-159,990,139,-32,-1,3
-158,995,133,-33,1,3
-152,1002,128,-33,1,2
-158,989,137,-34,0,3
-158,996,140,-33,3,5
-170,996,149,-32,3,5
-162,989,134,-32,2,6
-159,994,139,-32,1,6
-157,985,125,-31,1,8
-150,994,128,-30,2,9
-152,1002,142,-30,2,8
-159,990,129,-28,-1,9
-152,988,117,-26,2,8
-159,994,133,-27,-1,9
-159,989,126,-26,-2,9
-158,1000,125,-25,-3,9
-148,994,125,-25,-7,8
-152,993,126,-24,-6,8
-141,998,120,-22,-7,11
-157,993,126,-22,-8,10
-158,983,125,-21,-7,10
-147,993,134,-23,-10,11
-154,1002,144,-22,-8,9
-147,996,120,-21,-8,10
-145,995,132,-21,-9,9
-148,1007,126,-20,-8,9
-162,994,128,-21,-7,9
-150,987,128,-20,-7,10
-147,995,133,-21,-5,8
-154,994,132,-24,-6,9
-136,996,137,-24,-5,7
-148,996,148,-22,-3,7
-150,999,129,-22,-4,6
-147,993,131,-26,-4,8
-150,990,132,-27,-5,9
-147,988,129,-25,-3,8
-157,988,142,-27,-6,6
-164,990,142,-25,-2,5
-140,996,125,-27,-7,6
-154,995,131,-30,-6,7
-147,994,137,-29,-5,6
-151,1004,149,-31,-7,7
-148,993,142,-31,-6,7
-148,999,154,-32,-8,5
-154,1000,137,-33,-8,5
-154,996,140,-33,-5,7
-144,996,137,-36,-6,5
-150,995,146,-35,-5,4
-141,1000,145,-37,-5,6
-147,990,154,-36,-3,6
-152,1007,140,-34,-5,6
-154,1002,122,-34,-3,7
-147,1006,148,-35,-3,8
-148,996,128,-35,-2,8
-136,994,142,-34,-1,10
-140,1005,126,-31,2,10
-150,989,132,-33,1,10
-157,994,126,-31,-1,11
-145,999,120,-29,2,11
-145,1006,123,-29,2,8
-151,1000,137,-29,2,12
-148,996,122,-29,5,9
-150,995,132,-24,4,10
-142,1000,126,-27,2,11
-159,1000,134,-26,4,9
-159,1004,152,-27,2,9
-147,995,150,-27,-1,7
-150,995,149,-26,0,6
-156,1002,146,-26,0,8
-150,999,144,-27,-4,6
-145,998,132,-27,-4,6
-152,998,150,-28,-5,4
-154,1004,162,-29,-7,2
-148,1005,152,-30,-8,-256
-152,1002,126,-29,-10,-1
-145,1002,128,-33,-11,-256
-151,990,146,-30,-11,-4
-151,1002,145,-32,-13,-4
-152,996,150,-31,-11,-5
-154,984,140,-31,-14,-5
-147,994,132,-30,-11,-6
-141,989,134,-31,-12,-5
-156,988,134,-31,-11,-4
-154,990,134,-31,-10,-5
-150,983,125,-29,-8,-6
-151,989,126,-30,-7,-4
-128,990,134,-29,-7,-4
-147,998,149,-26,-6,-5
-147,985,146,-29,-5,-3
-150,982,140,-25,-4,-5
-145,988,145,-24,-6,-2
-140,988,142,-23,-6,-1
-150,1000,137,-22,-4,-2
-134,993,134,-21,-6,-1
-152,994,129,-18,-5,0
-150,1000,129,-22,-4,0
-150,993,144,-18,-5,0
-141,989,128,-19,-4,0
-148,994,122,-16,-4,1
-141,994,131,-16,-5,2
-139,979,123,-15,-4,2
-142,999,150,-15,-4,1
-142,990,122,-14,-2,4
-133,1006,139,-16,1,2
-150,994,134,-15,1,2
-154,990,142,-16,0,4
-147,978,123,-19,5,3
-152,979,120,-18,4,1
-144,996,125,-18,5,1
-147,996,120,-19,3,3
-154,993,123,-19,6,2
-148,982,129,-22,5,1
-152,987,146,-21,5,2
-150,983,140,-22,2,-1
-154,979,142,-26,0,0
-152,989,134,-25,1,0
-145,983,142,-26,-4,-1
-158,985,156,-28,-4,-1
-152,977,145,-27,-5,-3
-156,993,134,-27,-8,-5
-148,985,129,-29,-9,-3
-150,984,144,-29,-9,-4
-150,987,139,-27,-11,-6
-148,979,121,-29,-11,-5
-142,989,144,-28,-11,-4
-140,994,142,-29,-11,-6
-147,1000,134,-26,-11,-5
-151,985,131,-24,-8,-6
-150,988,139,-26,-10,-7
-150,993,129,-22,-10,-5
-147,1007,142,-21,-9,-5
-148,994,131,-19,-4,-5
-145,983,142,-18,-5,-4
-154,978,133,-15,255,-3
-150,990,131,-15,3,-5
-159,977,128,-14,2,-2
-135,995,122,-12,5,-3
-158,995,145,-12,6,0
-158,994,149,-11,6,-1
-141,989,144,-8,7,-1
-147,1000,133,-10,6,1
-150,995,138,-9,9,2
-159,1000,144,-8,6,2
-144,994,139,-8,4,4
-145,989,146,-7,3,4
-158,994,150,-8,1,2
-158,989,133,-9,-2,1
-152,996,133,-11,0,2
-147,982,134,-12,-2,5
-157,995,149,-10,-3,3
-162,1000,132,-12,-1,0
-157,994,139,-12,-3,1
-165,995,134,-13,-7,1
-158,987,137,-11,-5,0
-158,993,133,-13,-6,0
-163,995,133,-14,-4,-3
-165,1006,117,-10,-4,-3
-167,989,125,-11,-7,-4
-173,1002,128,-12,-7,-6
-162,998,140,-10,-8,-7
-167,999,109,-11,-9,-9
-171,996,128,-10,-11,-8
-163,1012,144,-10,-10,-10
-171,999,131,-8,-11,-14
-158,1004,140,-11,-11,-12
-171,1000,131,-12,-13,-12
-159,994,128,-10,-15,-15
-164,993,134,-13,-14,-15
-170,1002,149,-13,-11,-15
-150,999,139,-14,-13,-13
-163,993,140,-15,-14,-11
-152,1000,121,-13,-10,-13
-158,989,132,-16,-10,-9
-145,1002,121,-15,-8,-8
-156,1009,145,-17,-7,-6
-151,1011,122,-16,-5,-6
-152,985,128,-17,-3,-3
-151,999,140,-17,255,255
-154,1005,133,-16,2,2
-152,1004,121,-14,3,4
-152,1005,126,-13,4,6
-158,999,134,-14,6,8
-157,995,120,-14,4,8
-157,1012,125,-14,3,11
-142,1013,139,-13,4,13
-157,1005,125,-13,3,11
-158,1012,120,-16,1,13
-165,1007,123,-12,-3,12
-145,1007,139,-14,-1,12
-145,999,131,-14,-3,13
-151,1004,131,-16,-6,12
-150,1009,132,-14,-7,11
-154,1007,121,-16,-8,11
-151,1011,120,-14,-4,13
-154,998,133,-16,-8,9
-154,990,132,-14,-6,11
-151,993,98,-14,-4,7
-151,996,115,-13,-6,7
-151,995,120,-12,-5,6
-134,999,100,-13,-3,5
-152,1000,109,-12,-3,2
-148,1000,108,-9,-5,1
-154,990,105,-10,-2,-1
-159,994,108,-9,-3,-3
-154,1000,108,-12,-3,-5
-154,1002,122,-11,-4,-7
-152,1015,125,-12,-7,-10
-163,1013,115,-12,-11,-12
-157,1016,115,-15,-10,-10
-158,1006,123,-17,-16,-13
-152,1007,126,-20,-19,-13
-156,1009,131,-24,-20,-16
-150,1009,123,-27,-20,-15
-151,988,121,-31,-25,-17
-145,990,128,-32,-24,-19
-142,999,137,-36,-24,-15
-150,1002,137,-39,-23,-14
-142,990,139,-41,-21,-14
-147,998,122,-46,-22,-13
-147,995,126,-48,-20,-12
-154,995,128,-50,-17,-12
-141,994,120,-52,-14,-9
-141,990,133,-49,-9,-9
-156,987,102,-50,-9,-6
-147,995,115,-50,-8,-6
-151,987,121,-48,-3,-5
-147,1002,110,-47,-2,-4
-142,996,112,-46,0,-3
-141,999,126,-43,2,-2
-150,1002,120,-43,4,-3
-150,999,131,-42,5,0
-162,993,125,-37,7,-1
-162,994,122,-39,7,2
-158,994,123,-35,8,3
-156,1000,115,-32,9,2
-144,995,126,-32,9,5
-152,994,128,-32,9,5
-156,994,145,-28,10,7
-151,995,144,-30,9,6
-151,988,144,-28,8,9
-133,989,137,-28,7,8
-150,989,146,-29,8,10
-144,990,157,-28,6,10
-158,982,150,-31,4,11
-148,982,137,-29,6,12
-152,1000,133,-31,3,10
-147,989,152,-34,3,11
-156,999,139,-33,5,14
-133,996,155,-32,2,11
-142,985,138,-34,2,10
-154,989,138,-33,1,11
-145,990,157,-35,-1,9
-152,993,150,-33,-2,7
-152,979,137,-35,-3,7
-148,987,138,-34,-5,6
-147,993,133,-31,-4,4
-145,993,145,-33,-4,2
-152,989,140,-30,-6,1
-151,993,162,-30,-5,1
-158,979,131,-30,-7,-4
-144,982,133,-28,-8,-3
-147,990,152,-28,-8,-4
-154,983,142,-27,-9,-4
-144,984,150,-25,-8,-6
-154,973,140,-24,-10,-8
-147,994,133,-23,-7,-7
-147,998,144,-23,-8,-7
-154,993,138,-23,-6,-7
-147,985,137,-23,-5,-9
-147,1002,142,-20,-6,-8
-152,978,161,-20,-4,-8
-156,989,146,-21,-1,-8
-148,983,138,-20,-4,-6
-158,999,155,-20,-3,-4
-141,983,137,-20,-3,-4
-154,989,138,-19,-2,-5
-154,996,128,-20,-3,-3
-142,973,129,-19,-4,-3
-140,989,157,-19,-8,255
-158,995,128,-21,-7,0
-145,995,125,-22,-8,-2
-150,998,138,-21,-8,2
-148,990,129,-19,-8,1
-140,996,162,-20,-10,0
-150,983,137,-18,-14,3
-144,985,137,-20,-11,3
-157,998,140,-19,-12,2
-148,995,120,-16,-10,4
-151,990,134,-18,-8,5
-157,999,139,-17,-8,3
-148,983,144,-16,-5,4
-157,998,128,-17,-3,2
-140,1006,128,-17,-2,3
-152,993,125,-17,1,2
-147,998,126,-18,2,3
-158,984,140,-18,4,5
-157,985,122,-19,4,2
-144,988,134,-19,6,2
-156,989,122,-20,8,6
-147,993,121,-20,5,4
-145,988,131,-23,7,5
-139,990,123,-22,7,4
-141,1000,123,-24,3,7
-140,995,125,-25,5,5
-150,983,137,-25,9,5
-154,987,126,-28,6,6
-136,989,125,-29,9,4
-135,984,129,-31,10,7
-157,993,131,-31,9,7
-157,989,131,-31,8,6
-163,1006,132,-34,7,6
-147,1007,132,-35,4,7
-157,995,137,-37,1,8
-145,998,144,-39,-1,8
-144,993,138,-38,-2,9
-158,993,145,-42,-5,8
-140,995,134,-42,-10,8
-139,987,117,-41,-11,9
-148,984,122,-43,-13,10
-150,984,123,-42,-15,7
-148,1005,123,-44,-14,10
-147,987,120,-40,-14,10
-152,1006,126,-41,-12,9
-159,993,110,-39,-9,9
-147,994,123,-39,-9,9
-141,993,116,-38,-12,8
-154,998,134,-36,-10,11
-145,990,131,-36,-13,9
-130,999,125,-34,-13,8
-152,989,146,-33,-14,8
-152,979,144,-34,-12,8
-154,984,145,-34,-13,8
-145,993,138,-32,-12,8
-156,988,125,-32,-12,7
-156,984,134,-32,-10,6
-162,987,133,-29,-11,5
-150,995,145,-31,-7,3
-162,996,117,-29,-9,4
-156,993,123,-31,-5,4
-159,993,131,-27,-8,3
-152,985,134,-28,-5,5
-147,990,131,-29,-10,2
-151,988,132,-28,-7,5
-140,994,138,-29,-3,5
-156,988,138,-26,-4,5
-144,994,139,-26,-2,4
-154,995,132,-29,2,4
-147,993,131,-27,-1,5
-157,999,154,-30,-2,4
-150,995,129,-28,0,4
-154,994,150,-30,-3,5
-157,996,129,-29,-3,6
-154,993,142,-31,-4,5
-167,994,134,-30,-8,5
-162,988,152,-31,-8,6
-167,988,139,-33,-9,7
-157,978,134,-33,-10,6
-154,983,145,-32,-12,6
-141,993,150,-36,-12,8
-147,993,145,-34,-9,9
-150,994,132,-35,-11,9
-156,998,140,-36,-10,9
-145,988,139,-35,-9,10
-148,979,144,-35,-9,10
-150,984,148,-38,-10,11
-144,989,156,-35,-6,10
-163,985,144,-35,-5,11
-151,982,138,-36,-7,12
-148,979,128,-35,-4,12
-152,984,149,-37,-3,10
-150,982,140,-36,-1,11
-154,984,128,-35,-3,10
-150,982,134,-34,-2,11
-142,978,139,-35,-1,11
-148,994,132,-33,1,12
-158,979,137,-32,-3,11
-150,976,133,-31,1,9
-147,990,148,-30,0,9
-154,978,132,-30,-1,8
-157,976,160,-30,-1,9
-148,983,137,-28,-3,9
-154,987,148,-29,-2,7
-147,985,145,-26,-3,6
-151,993,138,-27,-6,8
-167,994,160,-26,-3,5
-148,990,155,-25,-8,7
-158,989,157,-23,-7,4
-152,979,132,-22,-8,7
-145,993,150,-23,-11,4
-152,983,134,-21,-13,2
-152,988,149,-20,-14,4
-156,995,125,-20,-16,2
-151,995,161,-19,-18,2
-151,993,144,-19,-19,-256
-141,979,142,-18,-18,2
-154,998,148,-15,-18,-2
-148,983,155,-17,-16,-1
-151,998,144,-12,-19,-2
-159,993,140,-13,-15,-1
-156,988,157,-12,-18,-256
-142,990,115,-10,-15,-2
-148,994,139,-10,-13,-1
-154,974,144,-10,-14,-1
-151,984,144,-7,-12,-2
-152,988,134,-9,-12,-3
-158,987,139,-7,-10,-2
-157,995,140,-6,-8,-3
-141,979,129,-6,-8,-3
-147,993,140,-5,-11,-2
-156,985,144,-7,-10,-1
-154,995,154,-7,-9,0
-156,988,138,-5,-10,-2
-167,1000,140,-6,-8,0
-145,998,142,-5,-9,-1
-148,994,134,-7,-9,2
-152,993,144,-9,-9,2
-148,995,138,-8,-11,3
-134,996,142,-11,-11,3
-147,988,148,-11,-14,2
-152,995,150,-11,-13,4
-162,995,142,-13,-15,1
-154,996,148,-13,-15,3
-163,988,148,-12,-14,5
-148,989,133,-15,-13,4
-156,993,128,-13,-13,3
-152,995,134,-15,-13,4
-159,993,149,-15,-13,4
-163,995,133,-16,-10,4
-167,993,137,-14,-9,3
-145,987,128,-16,-8,5
-158,990,133,-15,-7,3
-152,995,133,-16,-6,4
-159,994,137,-15,-5,6
-151,978,146,-16,-2,7
-151,985,140,-18,-5,5
-142,982,129,-16,-5,5
-144,995,148,-16,-1,7
-152,1002,125,-15,-1,7
-141,974,139,-15,-2,6
-148,990,128,-16,-1,7
-142,998,140,-15,2,8
-145,1004,139,-14,1,9
-144,998,144,-13,2,10
-136,1000,134,-12,4,10
-154,1000,144,-13,2,11
-140,999,140,-14,3,12
-145,989,145,-13,3,13
-139,983,157,-13,1,13
-156,982,148,-12,4,14
-144,999,134,-13,3,13
-148,984,142,-10,2,14
-148,995,134,-12,3,14
-154,1000,133,-10,0,10
-145,990,138,-9,-1,11
-145,990,138,-11,-1,10
-156,989,132,-9,-4,10
-148,993,157,-8,-6,8
-156,996,140,-10,-3,6
-150,1004,131,-9,-6,5
-144,996,126,-8,-9,3
-156,1009,139,-11,-9,1
-162,999,121,-10,-11,1
-157,1002,142,-10,-13,-4
-159,1004,133,-11,-13,-4
-157,1006,132,-11,-15,-6
-164,994,129,-10,-18,-8
-167,1015,133,-11,-16,-7
-151,1016,125,-11,-15,-11
-165,1006,152,-11,-19,-12
-159,1002,133,-13,-15,-12
-164,999,125,-12,-17,-11
-150,1004,139,-12,-15,-12
-164,1002,133,-12,-15,-12
-141,996,125,-14,-14,-10
-154,1000,131,-14,-14,-10
-145,990,117,-13,-13,-10
-151,989,132,-13,-12,-8
-157,1000,137,-11,-10,-5
-152,1004,140,-15,-7,-4
-148,995,125,-13,-2,-2
-154,996,133,-16,2,-1
-135,990,125,-14,6,1
-140,998,138,-15,7,4
-150,1005,129,-15,12,7
-147,994,132,-16,12,9
-150,1006,125,-16,11,11
-148,1004,131,-17,13,11
-148,998,145,-19,12,14
-150,1006,134,-18,13,16
-156,998,132,-23,12,16
-158,990,133,-22,13,16
-139,990,133,-24,13,19
-145,999,132,-26,13,19
-141,1005,144,-24,11,20
-154,996,145,-27,8,19
-140,998,138,-26,5,19
-140,995,149,-29,2,20
-151,995,149,-30,2,19
-136,989,144,-31,-1,18
-171,994,162,-32,-4,18
-177,976,145,-35,-12,13
-167,993,144,-33,-12,11
-148,998,142,-37,-10,9
-139,1005,123,-35,-7,7
-141,994,132,-36,-6,8
-151,996,137,-37,-11,4
-147,983,140,-35,-16,4
-136,988,142,-34,-18,3
-150,984,133,-33,-19,-1
-141,985,123,-33,-20,1
-151,989,112,-31,-17,-1
-148,983,149,-30,-16,-4
-154,983,149,-29,-16,-4
-150,995,126,-27,-13,-5
-150,982,128,-25,-13,-4
-150,994,145,-26,-15,-6
-157,983,137,-21,-16,-6
-142,984,133,-20,-18,-7
-151,994,123,-16,-20,-8
-148,993,134,-15,-21,-6
-158,993,139,-13,-22,-7
-152,998,148,-11,-22,-8
-157,999,138,-10,-24,-11
-148,993,156,-10,-24,-9
-152,994,140,-9,-23,-8
-148,999,137,-8,-24,-10
-156,994,134,-7,-26,-10
-140,998,137,-7,-26,-8
-150,989,154,-4,-25,-9
-141,988,133,-4,-24,-7
-156,1002,138,-5,-22,-6
-152,988,131,-5,-21,-6
-142,1002,148,-4,-20,-2
-148,1007,137,-4,-17,-3
-142,1006,116,-4,-17,-2
-139,996,139,-3,-13,0
-148,1005,132,-4,-13,0
-154,994,142,-5,-13,0
-150,1004,144,-5,-11,0
-151,1002,121,-4,-12,3
-154,1000,144,-5,-12,2
-151,1007,139,-8,-12,-1
-148,996,128,-5,-12,3
-148,1004,125,-7,-12,1
-154,988,131,-8,-16,3
-145,998,144,-9,-15,1
-140,999,123,-9,-18,0
-151,993,128,-11,-19,0
-165,1007,126,-13,-22,-1
-159,999,134,-13,-21,0
-159,1011,133,-15,-23,-3
-157,1004,117,-18,-23,-3
-150,1011,126,-18,-22,-5
-145,989,131,-21,-23,-3
-163,1002,114,-21,-22,-5
-159,1006,133,-23,-21,-6
-151,999,132,-24,-19,-8
-144,995,137,-26,-19,-7
-142,998,139,-29,-19,-9
-157,994,128,-30,-18,-9
-156,999,138,-31,-16,-8
-145,994,134,-35,-14,-9
-147,985,126,-33,-15,-7
-151,988,128,-35,-14,-7
-157,994,123,-37,-11,-7
-157,998,120,-35,-12,-8
-148,990,137,-36,-12,-6
-147,994,114,-34,-11,-4
-144,987,122,-35,-11,-3
-140,985,126,-33,-12,-2
-152,1002,140,-32,-10,-2
-144,987,131,-30,-12,-1
-150,993,131,-30,-11,1
-140,1004,114,-30,-13,4
-145,996,129,-26,-12,4
-156,1004,138,-25,-13,2
-157,988,121,-24,-12,6
-154,998,126,-22,-14,6
-158,994,128,-21,-14,6
-148,989,128,-20,-11,8
-154,989,149,-20,-14,9
-142,1002,138,-18,-13,8
-154,995,132,-18,-13,9
-147,995,146,-19,-12,10
-154,995,128,-19,-10,9
-142,994,129,-16,-11,10
-144,998,128,-20,-11,11
-144,994,128,-19,-8,9
-157,988,131,-21,-10,10
-139,976,129,-19,-10,7
-142,995,140,-22,-8,7
-145,1004,138,-21,-10,8
-151,982,117,-23,-9,7
-157,1000,145,-23,-8,7
-158,995,154,-24,-7,5
-147,994,140,-29,-6,5
-152,999,142,-27,-6,5
-140,998,145,-27,-8,3
-145,988,144,-28,-8,3
-147,1000,123,-30,-11,2
-158,989,132,-28,-12,1
-148,987,142,-33,-14,-1
-163,996,128,-33,-17,-1
-147,983,133,-30,-19,-1
-157,983,160,-33,-22,-2
-148,995,133,-32,-22,-2
-150,987,139,-32,-24,-4
-147,993,131,-31,-23,-2
-147,990,122,-32,-23,-4
-144,983,131,-31,-22,-3
-139,984,125,-31,-24,-3
-142,984,142,-28,-21,-3
-154,979,142,-31,-21,-4
-152,984,128,-28,-19,-5
-154,996,137,-28,-15,-3
-134,994,144,-29,-14,-4
-145,989,138,-27,-9,-4
-154,985,121,-28,-8,-5
-142,999,148,-27,-4,-4
-140,990,142,-28,-3,-3
-151,990,149,-27,-2,-3
-147,989,155,-27,-2,-2
-157,987,152,-27,-2,-1
-147,987,140,-27,-2,0
-150,994,155,-28,-5,0
-147,989,146,-28,-2,1
-141,994,155,-30,-3,2
-151,985,149,-28,-6,1
-152,999,152,-31,-3,3
-150,993,156,-29,-4,5
-147,984,142,-31,-7,4
-150,983,171,-30,-8,5
-151,982,161,-30,-7,5
-150,995,146,-30,-12,5
-150,995,131,-29,-11,6
-145,979,139,-27,-15,8
-156,979,144,-25,-16,6
-157,987,145,-27,-15,6
-148,984,134,-24,-16,6
-156,973,148,-22,-17,5
-163,983,138,-22,-15,4
-154,990,144,-19,-15,3
-156,982,166,-17,-15,2
-159,985,138,-16,-13,1
-158,989,154,-14,-11,2
-147,988,145,-13,-14,0
-159,994,150,-12,-11,1
-148,974,138,-10,-10,-1
-152,995,144,-6,-12,255
-151,982,134,-7,-12,1
-144,979,149,-5,-10,0
-140,976,146,-3,-11,-1
-142,976,144,-6,-11,-1
-150,976,149,-5,-8,1
-144,996,152,-4,-9,-1
-151,990,150,-5,-8,-256
-151,984,156,-4,-8,-1
-141,990,138,-4,-6,1
-141,978,144,0,-4,2
-141,989,148,-2,-6,0
-135,988,137,0,-6,1
-145,983,137,0,-6,3
-142,985,154,0,-8,4
-148,990,148,0,-6,5
-135,983,148,3,-7,5
-145,990,126,3,-9,5
-144,987,139,2,-8,4
-144,995,140,3,-8,5
-142,996,140,3,-9,4
-141,998,133,3,-11,4
-142,984,131,2,-10,5
-148,994,121,4,-11,4
-147,996,132,4,-12,5
-152,994,133,5,-11,3
-144,998,144,2,-11,2
-157,993,137,2,-11,1
-152,996,139,2,-12,0
-151,983,120,3,-11,0
-157,989,149,2,-13,-2
-148,1002,137,1,-12,-2
-152,1002,146,1,-11,-2
-152,999,128,0,-12,-4
-136,995,132,-1,-12,-5
-151,994,140,-2,-11,-6
-148,1006,137,-3,-13,-6
-154,995,109,-4,-14,-9
-152,998,134,-6,-13,-6
-154,999,129,-8,-15,-8
-145,990,150,-9,-14,-6
-145,996,134,-10,-16,-11
-154,1000,121,-12,-16,-9
-151,984,126,-12,-15,-6
-152,1004,128,-13,-15,-9
-148,1000,131,-14,-14,-8
-150,990,122,-15,-15,-8
-151,1004,108,-15,-15,-7
-150,998,129,-16,-13,-7
-154,985,129,-17,-13,-8
-157,988,131,-18,-16,-4
-156,994,105,-18,-12,-6
-140,987,140,-16,-13,-6
-154,1004,133,-17,-12,-2
-157,1004,115,-18,-12,-4
-142,999,128,-19,-8,-2
-145,994,112,-18,-11,-3
-158,995,123,-19,-9,2
-159,1000,146,-19,-4,0
-148,1007,121,-19,-5,4
-150,1000,126,-19,-3,4
-144,996,133,-18,0,4
-142,999,131,-17,1,6
-140,1013,137,-18,-2,6
-147,999,128,-17,2,7
-144,998,125,-20,5,9
-151,1004,116,-16,6,10
-148,996,137,-17,4,11
-148,998,133,-19,7,10
-151,1000,126,-20,9,10
-152,1004,133,-17,6,11
-151,995,144,-20,6,8
-145,1000,123,-19,3,13
-147,1000,149,-20,2,12
-158,1006,144,-21,1,11
-156,1000,129,-21,1,11
-158,1009,142,-21,-4,11
-152,989,138,-22,-6,13
-152,1005,142,-23,-5,11
-148,998,139,-23,-7,10
-148,990,146,-25,-10,8
-154,996,140,-22,-12,8
-150,1002,155,-23,-13,6
-151,1005,138,-25,-15,6
-147,998,133,-24,-16,4
-150,993,132,-23,-18,4
-159,998,144,-25,-17,3
-157,993,122,-23,-20,3
-142,988,139,-23,-20,2
-158,998,128,-23,-21,1
-151,1002,129,-22,-20,-1
-145,1005,133,-22,-15,-2
-145,999,129,-23,-19,-1
-156,1009,134,-22,-18,-2
-148,994,144,-23,-15,-2
-139,994,146,-23,-14,-1
-151,1002,125,-23,-12,-1
-141,994,138,-23,-14,-2
-150,993,144,-24,-12,-1
-154,993,137,-25,-11,0
-139,993,133,-23,-11,2
-147,1002,128,-25,-9,2
-157,1000,129,-25,-10,2
-152,1005,132,-24,-8,2
-150,1000,133,-25,-11,4
-158,1000,137,-25,-8,4
-158,1004,128,-25,-10,4
-144,1000,146,-25,-10,5
-144,993,121,-24,-10,4
-142,989,140,-26,-11,7
-147,1000,146,-25,-12,8
-150,990,150,-25,-10,8
-139,995,140,-25,-11,9
-142,990,139,-25,-12,10
-140,994,139,-23,-10,9
-147,988,128,-24,-7,13
-145,999,128,-23,-7,10
-127,982,126,-21,-6,15
-135,995,146,-20,-5,11
-150,984,122,-21,-4,12
-150,995,128,-20,-2,14
-151,998,134,-17,-1,11
-130,987,116,-17,-2,12
-144,1006,149,-16,5,12
-145,1002,120,-16,4,11
-145,993,133,-14,5,9
-140,993,129,-17,8,12
-142,993,146,-18,8,10
-147,993,148,-17,6,10
-144,993,138,-18,6,9
-147,983,132,-17,7,9
-134,994,133,-20,6,10
-152,987,139,-19,7,7
-141,999,146,-19,4,8
-123,977,140,-21,6,6
-139,995,140,-21,4,9
-139,995,132,-22,6,6
-134,988,150,-19,3,6
-142,989,133,-21,1,5
-148,999,150,-23,-3,4
-142,993,128,-22,-5,3
-152,1004,140,-23,-6,-2
-147,1004,146,-24,-7,-1
-139,1007,144,-23,-11,-3
-158,1005,150,-26,-15,-6
-147,1005,133,-24,-18,-6
-141,993,138,-24,-21,-10
-141,995,142,-26,-23,-11
-147,1000,154,-29,-25,-13
-148,1000,137,-30,-29,-14
-147,1006,137,-34,-25,-15
-141,984,142,-30,-27,-16
-148,989,145,-34,-27,-17
-136,976,149,-33,-22,-18
-144,985,145,-32,-21,-16
-141,998,134,-32,-19,-17
-145,998,138,-33,-13,-17
-130,998,132,-31,-13,-16
-135,982,138,-29,-9,-15
-140,982,121,-29,-7,-17
-147,993,139,-26,-4,-15
-147,988,148,-25,-4,-15
-151,994,106,-22,-2,-16
-145,988,131,-21,-2,-13
-145,993,132,-22,-4,-14
-163,989,125,-17,-6,-15
-154,999,133,-15,-8,-16
-173,1005,140,-15,-12,-15
-162,1002,140,-16,-15,-15
-164,1006,149,-13,-21,-14
-167,1000,137,-12,-25,-15
-171,1007,137,-14,-26,-14
-164,1005,138,-14,-27,-14
-164,1007,128,-16,-32,-11
-154,1013,139,-19,-33,-15
-156,996,148,-20,-31,-13
-145,998,142,-19,-34,-10
-147,1000,134,-22,-32,-10
-152,998,133,-26,-30,-7
-156,1000,129,-24,-27,-7
-136,994,133,-27,-23,-5
-150,990,142,-25,-20,-4
-144,982,137,-26,-14,-1
-142,982,109,-28,-11,0
-147,995,122,-25,-7,1
-148,996,129,-26,-1,1
-154,987,121,-24,4,5
-151,996,128,-22,5,5
-152,996,132,-23,8,3
-156,987,133,-23,9,6
-162,988,120,-22,10,7
-154,990,137,-21,12,7
-159,998,115,-20,9,7
-158,998,134,-18,9,7
-169,985,120,-19,8,7
-150,995,146,-18,5,7
-159,1000,115,-17,1,9
-158,985,140,-17,2,9
-159,994,142,-17,1,11
-147,1006,146,-15,-3,9
-163,994,134,-16,-5,8
-154,993,139,-19,-8,10
-169,998,144,-21,-9,11
-147,990,144,-21,-12,9
-144,996,140,-20,-10,10
-142,987,138,-22,-12,9
-156,995,128,-21,-12,12
-144,999,144,-20,-13,9
-154,984,133,-23,-13,9
-144,983,144,-23,-13,10
-145,988,132,-23,-13,8
-140,982,131,-24,-14,6
-148,1004,145,-21,-10,5
-157,994,133,-18,-13,3
-148,987,115,-20,-8,2
-141,993,116,-17,-7,3
-144,1000,131,-15,-8,3
-142,1002,117,-14,-5,1
-154,994,109,-14,-5,1
-148,990,122,-14,-4,0
-141,995,120,-11,-3,0
-140,998,116,-12,-2,0
-141,995,120,-12,-5,-2
-151,1000,126,-10,-2,-1
-147,989,123,-12,-3,-2
-141,1005,122,-14,-4,-1
-154,1017,144,-14,-8,-256
-148,996,133,-16,-4,1
-151,1009,132,-20,-6,1
-147,1009,133,-20,-8,-2
-144,999,133,-22,-9,-2
-145,995,140,-24,-12,-1
-145,998,149,-29,-11,0
-129,994,145,-31,-14,0
-152,985,139,-34,-15,2
-147,1004,144,-37,-15,2
-145,996,145,-38,-16,0
-140,988,140,-41,-15,3
-140,996,132,-40,-11,1
-135,979,137,-44,-9,0
-142,979,131,-44,-9,0
-142,998,128,-42,-5,2
-133,984,133,-44,-1,1
-144,983,137,-41,-1,1
-152,989,123,-41,-2,2
-139,983,115,-40,2,-2
-145,982,137,-39,0,0
-140,998,121,-39,1,-3
-136,983,126,-36,2,-3
-156,982,131,-32,2,-4
-141,983,137,-34,1,-6
-147,993,133,-31,1,-6
-147,977,133,-30,-1,-7
-148,979,144,-29,-2,-7
-158,985,145,-30,-4,-8
-148,988,145,-28,-7,-9
-163,989,139,-25,-9,-7
-156,996,160,-25,-11,-9
-150,987,150,-26,-13,-8
-148,987,146,-26,-16,-10
-158,993,148,-28,-17,-8
-156,977,146,-26,-20,-9
-151,998,152,-26,-18,-6
-157,987,156,-25,-21,-10
-144,990,133,-26,-21,-9
-142,983,146,-24,-22,-8
-145,996,144,-25,-20,-6
-152,984,148,-23,-19,-6
-158,990,140,-21,-19,-4
-136,999,145,-22,-17,-6
-142,998,121,-22,-14,-4
-145,989,145,-19,-11,-2
-145,984,123,-16,-7,-2
-151,999,129,-16,-7,-1
-140,982,139,-14,-2,1
-145,982,125,-14,1,2
-142,994,142,-11,5,1
-158,988,138,-11,5,2
-159,985,148,-10,8,2
-140,1000,152,-9,8,3
-145,987,137,-9,9,4
-162,998,138,-9,8,5
-152,989,126,-9,8,5
-145,979,139,-9,9,2
-154,999,145,-9,4,3
-152,998,137,-10,0,5
-144,1005,155,-12,-1,3
-159,998,146,-12,-6,3
-156,987,144,-14,-7,2
-159,1006,150,-14,-12,0
-169,998,140,-16,-16,1
-151,1006,149,-17,-16,0
-150,995,148,-17,-18,-1
-152,995,140,-20,-18,-2
-156,985,125,-20,-21,-4
-159,999,144,-20,-21,-6
-158,999,115,-20,-23,-5
-162,1004,139,-20,-20,-8
-158,995,121,-20,-24,-10
-159,1005,133,-19,-24,-10
-159,1005,132,-19,-21,-10
-154,996,139,-20,-24,-15
-152,998,131,-19,-23,-14
-169,993,128,-19,-20,-16
-176,1002,138,-17,-21,-15
-158,993,120,-19,-24,-18
-158,996,137,-18,-19,-17
-158,994,134,-16,-20,-16
-150,995,126,-16,-18,-20
-163,1002,120,-16,-18,-19
-158,1005,126,-15,-18,-16
-151,993,128,-16,-16,-16
-154,994,122,-17,-15,-15
-142,996,129,-17,-13,-14
-148,995,122,-18,-12,-12
-170,999,125,-17,-12,-11
-151,994,137,-18,-11,-9
-151,995,137,-19,-6,-6
-159,987,128,-20,-7,-4
-154,993,122,-21,-6,-3
-163,998,115,-21,-5,0
-158,999,131,-21,-2,1
-151,1004,138,-20,-2,5
-152,998,133,-24,-3,8
-156,1004,137,-26,-1,8
-152,1005,138,-25,-1,10
-144,994,114,-26,-2,12
-164,1000,126,-26,0,12
-156,996,120,-29,-1,15
-147,1005,129,-26,1,16
-150,996,134,-29,2,18
-159,1006,132,-28,5,19
-152,994,131,-26,2,19
-150,1004,131,-29,4,19
-152,998,123,-27,5,16
-152,1002,123,-30,2,18
-152,1002,140,-29,2,17
-147,985,138,-29,4,18
-167,1002,137,-30,3,16
-147,995,148,-27,-2,14
-165,1000,126,-29,-1,14
-154,995,102,-27,0,12
-158,990,123,-27,-3,12
-145,1002,134,-27,-2,10
-152,994,128,-27,-5,7
-154,1012,129,-26,-10,5
-154,995,128,-27,-11,5
-150,1005,117,-26,-13,3
-148,993,131,-25,-13,-1
-162,1000,116,-25,-17,-2
-150,996,116,-26,-17,-4
-157,1006,128,-26,-17,-3
-156,983,128,-24,-17,-6
-152,985,131,-24,-20,-7
-157,987,132,-26,-18,-8
-144,987,128,-26,-17,-8
-140,994,132,-28,-17,-9
-150,993,132,-28,-17,-11
-148,978,125,-27,-16,-11
-152,985,138,-32,-14,-9
-159,976,138,-30,-17,-9
-152,985,132,-31,-14,-9
-154,982,121,-33,-13,-7
-152,984,132,-33,-11,-7
-156,974,132,-34,-11,-7
-150,984,126,-35,-11,-5
-145,994,138,-36,-10,-6
-162,995,139,-34,-10,-4
-152,985,139,-39,-9,-3
-148,985,139,-39,-8,-2
-157,996,140,-38,-11,-2
-154,988,160,-39,-8,1
-158,989,140,-39,-8,1
-157,987,138,-39,-9,3
-154,988,133,-39,-7,2
-167,989,150,-42,-6,4
-156,998,163,-41,-5,4
-148,995,149,-41,-4,7
-144,995,165,-38,-4,8
-151,984,146,-37,-2,11
-148,990,139,-38,-1,9
-147,984,132,-36,-3,9
-148,988,148,-37,-1,12
-154,988,156,-35,1,11
-157,984,149,-33,0,13
-164,988,140,-33,-1,13
-151,988,150,-30,-1,13
-150,985,140,-30,-2,13
-156,983,146,-28,-3,14
-154,976,150,-26,-4,14
-150,983,148,-27,-1,14
-162,994,131,-22,-5,11
-156,983,150,-23,-5,12
-150,987,161,-19,-7,11
-159,989,155,-18,-11,9
-141,984,155,-17,-6,10
-142,988,160,-17,-11,8
-151,994,148,-16,-13,7
-148,994,149,-12,-13,7
-144,979,129,-11,-14,5
-150,987,152,-12,-16,4
-144,982,132,-10,-16,4
-152,989,140,-10,-17,3
-150,999,150,-10,-19,1
-135,976,148,-6,-20,2
-150,993,150,-7,-19,-2
-144,982,155,-8,-16,-1
-148,984,173,-6,-17,-2
-147,982,149,-8,-17,-3
-154,994,132,-6,-15,-2
-145,995,126,-7,-17,-2
-145,985,142,-6,-16,-2
-144,990,149,-7,-14,-2
-148,990,132,-5,-15,-3
-134,985,138,-5,-15,-3
-144,982,117,-7,-14,-3
-134,977,154,-8,-13,-4
-141,994,134,-7,-10,-3
-144,988,140,-9,-12,-4
-147,995,128,-8,-11,-3
-140,996,139,-8,-9,-3
-147,1000,137,-8,-9,-3
-145,987,142,-9,-11,0
-162,988,131,-11,-11,0
-154,1002,132,-9,-9,-1
-148,993,129,-9,-11,1
-142,995,134,-9,-12,1
-139,1005,142,-9,-12,2
-156,987,134,-10,-11,3
-151,996,132,-11,-12,2
-151,990,150,-11,-12,1
-156,995,128,-13,-12,1
-151,998,129,-12,-10,2
-148,998,144,-12,-13,4
-148,996,137,-14,-8,2
-147,996,144,-13,-10,0
-148,990,128,-14,-7,4
-148,999,132,-16,-6,3
-152,1000,123,-18,-6,4
-151,1000,133,-19,-6,3
-141,1002,134,-18,-5,1
-157,998,125,-19,-6,3
-141,995,138,-20,-5,0
-148,1015,129,-23,-5,3
-136,1004,132,-23,-6,1
-140,998,132,-23,-6,1
-145,1009,146,-23,-5,1
-163,999,128,-25,-5,0
-158,1007,154,-26,-5,2
-156,1009,137,-25,-4,1
-141,1000,138,-28,-2,3
-158,1004,134,-27,-4,0
-151,1009,148,-29,-4,0
-145,1006,126,-27,-3,1
-140,1004,133,-29,-2,1
-152,1007,155,-29,-5,2
-154,998,139,-29,-4,2
-152,1009,134,-29,-3,-1
-151,1017,152,-31,-3,2
-148,1022,148,-29,-5,0
-152,1000,140,-28,-5,1
-157,1011,132,-31,-5,1
-147,1015,138,-30,-4,1
-156,1012,140,-28,-5,0
-157,1018,129,-29,-5,-1
-157,1015,137,-26,-6,1
-157,1012,139,-30,-5,-256
-156,1009,140,-28,-7,1
-156,1006,142,-28,-7,1
-156,1016,139,-28,-6,0
-159,1000,140,-30,-7,1
-156,1006,144,-29,-6,-1
-151,1017,134,-30,-7,-2
-154,1012,144,-29,-5,-1
-152,1006,142,-30,-5,0
-148,1012,152,-31,-7,0
-145,1009,137,-31,-4,-2
-156,1016,148,-33,-7,0
-147,1005,144,-33,-6,1
-156,1009,139,-35,-3,1
-150,1017,149,-34,-4,1
-148,1009,149,-35,-4,0
-152,1005,140,-38,-4,4
-144,998,142,-39,-2,3
-145,1004,142,-41,0,4
-139,1000,142,-40,-2,3
-147,1000,128,-42,0,5
-148,1002,142,-41,0,7
-158,1005,150,-42,3,7
-142,987,134,-41,6,8
-145,1002,146,-43,6,8
-157,1004,145,-43,7,7
-148,1000,144,-42,8,8
-147,995,156,-42,7,8
-142,1000,155,-41,9,9
-144,998,152,-43,11,10
-145,1002,140,-42,9,8
-145,987,145,-44,11,12
-145,990,138,-42,9,8
-158,988,138,-42,7,7
-142,998,140,-43,7,8
-140,978,145,-41,9,9
-144,1000,145,-42,7,9
-154,996,139,-43,6,8
-154,998,156,-43,6,9
-144,993,155,-42,6,8
-147,985,155,-43,5,8
-152,1005,152,-43,5,8
-145,999,160,-43,5,7
-128,988,137,-45,6,6
-140,989,152,-45,5,6
-148,983,142,-46,6,5
-141,990,146,-44,4,5
-136,984,144,-44,4,5
-154,989,134,-45,3,5
-142,994,155,-45,1,3
-154,994,146,-45,2,2
-145,996,149,-45,2,3
-152,987,140,-44,0,1
-136,998,128,-43,0,-1
-151,977,156,-45,1,-2
-148,982,142,-48,-1,-4
-145,988,142,-46,-2,-3
-144,976,150,-46,-3,-5
-133,990,157,-45,0,-5
-152,978,157,-44,1,-6
-141,978,150,-46,255,-6
-151,987,126,-45,3,-5
-147,968,145,-45,2,-7
-129,976,140,-42,3,-7
-141,985,155,-43,1,-6
-140,977,134,-42,4,-6
-142,974,139,-39,3,-4
-145,984,137,-41,4,-5
-147,978,149,-39,3,-4
-145,984,152,-38,0,-5
-162,984,154,-37,2,-3
-148,993,146,-36,0,-5
-145,983,165,-35,-1,-5
-151,989,149,-34,-2,-4
-157,988,148,-33,-3,-5
-157,990,154,-33,-2,-5
-154,978,150,-30,-3,-6
-147,982,149,-29,-3,-4
-133,971,146,-29,-3,-2
-139,970,160,-27,-1,-4
-148,976,140,-26,-3,-1
-151,979,162,-26,-2,-2
-147,974,148,-25,2,-1
-154,982,145,-23,1,-3
-142,970,161,-22,3,-2
-145,966,148,-21,6,1
-156,967,152,-23,7,1
-144,983,157,-21,7,-256
-148,979,154,-21,9,1
-144,983,149,-20,8,-2
-145,978,140,-21,7,-3
-152,984,165,-22,6,-2
-154,973,150,-22,3,-3
-151,976,156,-22,4,-4
-141,963,156,-24,3,-2
-151,982,172,-23,0,-4
-151,982,148,-23,-3,-2
-151,978,156,-25,-3,-5
-151,971,146,-22,-4,-5
-147,983,133,-25,-4,-4
-148,977,157,-25,-3,-5
-148,977,144,-24,-2,-6
-150,976,157,-23,-4,-7
-150,979,150,-24,-1,-7
-145,977,145,-21,-2,-6
-159,985,152,-23,-2,-6
-159,987,165,-22,0,-6
-147,983,149,-21,0,-8
-148,987,160,-19,-1,-9
-150,985,146,-19,-2,-9
-157,998,156,-19,-3,-8
-164,983,155,-15,-5,-9
-165,996,155,-17,-4,-10
-165,990,161,-16,-6,-12
-165,996,146,-15,-7,-12
-162,1004,148,-10,-11,-13
-176,993,152,-13,-11,-14
-152,995,144,-12,-14,-12
-165,984,155,-9,-14,-13
-156,989,162,-8,-17,-14
-163,983,156,-9,-18,-14
-164,998,142,-9,-18,-12
-163,988,155,-6,-19,-14
-159,983,144,-7,-16,-14
-163,995,156,-4,-15,-14
-159,993,157,-3,-15,-11
-174,990,139,-4,-14,-13
-162,988,133,-3,-12,-11
-148,1004,133,-3,-14,-10
-167,1004,145,-3,-14,-10
-151,994,129,-3,-12,-10
-145,1004,155,1,-12,-7
-169,1006,133,0,-12,-9
-156,996,146,0,-12,-7
-171,996,138,0,-11,-7
-173,1002,148,0,-12,-8
-170,999,142,0,-13,-7
-173,1000,132,2,-12,-7
-169,1006,132,0,-13,-4
-164,995,134,-256,-12,-5
-157,995,146,-2,-15,-4
-164,1005,131,-1,-13,-1
-164,1011,132,1,-12,-1
-170,1000,132,1,-11,-1
-157,1000,137,-2,-9,255
-158,1000,126,0,-8,4
-162,1015,129,-2,-6,7
-162,1005,125,-2,-4,5
-159,996,128,-3,-1,7
-173,993,129,-3,0,8
-152,1002,117,-4,0,8
-154,994,137,-7,2,10
-145,996,126,-5,2,11
-151,1002,131,-8,6,14
-158,1004,120,-11,7,14
-148,999,108,-8,9,15
-151,1004,139,-11,10,15
-152,1007,134,-12,11,15
-152,1000,122,-17,11,15
-156,994,126,-17,13,17
-151,994,128,-19,12,17
-170,993,139,-23,11,17
-150,994,123,-22,14,17
-148,999,122,-24,10,12
-154,998,152,-25,9,15
-140,998,128,-28,8,15
-142,999,137,-28,5,14
-148,990,128,-30,2,11
-152,1000,132,-32,1,10
-148,994,129,-35,-3,10
-147,993,121,-35,-4,10
-154,994,117,-37,-6,7
-154,990,129,-36,-6,6
-150,993,134,-36,-8,4
-157,993,139,-39,-11,4
-152,1009,131,-37,-10,1
-152,996,146,-40,-11,1
-156,1000,155,-40,-14,-3
-145,999,131,-34,-13,-1
-141,999,128,-38,-16,-2
-145,994,139,-36,-16,-5
-142,989,125,-36,-19,-6
-147,999,142,-37,-17,-6
-142,989,139,-33,-20,-8
-148,994,142,-29,-19,-8
-136,993,129,-29,-18,-8
-144,994,126,-29,-18,-8
-142,1000,134,-28,-19,-8
-141,989,131,-27,-18,-9
-139,994,125,-25,-15,-11
-145,999,138,-22,-14,-8
-141,1004,144,-23,-13,-9
-150,1000,149,-23,-13,-9
-148,996,134,-19,-11,-8
-136,990,128,-18,-12,-8
-140,1002,145,-18,-12,-7
-145,993,139,-19,-9,-6
-144,1006,149,-21,-8,-7
-150,989,148,-19,-7,-5
-145,998,140,-21,-7,-4
-141,999,152,-20,-7,-2
-145,996,139,-19,-7,-4
-150,983,148,-20,-4,-1
-151,999,129,-22,-4,-2
-141,987,150,-23,-6,-1
-145,998,148,-22,-2,-1
-147,1002,145,-24,-1,1
-150,989,148,-24,-1,2
-145,994,155,-25,-2,0
-151,998,137,-24,255,1
-147,998,137,-24,-1,1
-150,998,137,-27,-2,2
-156,1004,150,-26,0,2
-165,998,142,-29,-3,0
-145,1000,162,-29,-1,0
-150,996,139,-27,-2,-1
-144,1002,154,-31,-4,-1
-148,1000,140,-28,-4,-2
-154,993,152,-30,-5,-4
-152,1002,156,-27,-6,-3
-151,989,149,-28,-5,-6
-147,990,145,-29,-5,-6
-159,989,133,-28,-9,-8
-162,1002,149,-25,-9,-10
-148,1002,155,-29,-9,-12
-154,995,152,-25,-10,-11
-162,994,133,-24,-10,-17
-164,1012,154,-24,-11,-18
-165,1000,146,-22,-11,-19
-156,1006,145,-21,-15,-22
-162,1009,148,-21,-14,-21
-159,1012,145,-20,-14,-25
-151,1007,137,-22,-16,-26
-164,1007,150,-22,-18,-28
-162,999,142,-21,-19,-28
-151,1013,152,-23,-20,-28
-144,1004,140,-22,-21,-30
-142,989,133,-24,-20,-30
-139,994,144,-23,-18,-25
-151,995,137,-24,-20,-27
-148,996,117,-23,-16,-28
-144,993,138,-24,-17,-26
-152,994,126,-23,-11,-23
-157,996,134,-22,-12,-24
-169,989,137,-22,-11,-23
-156,1004,121,-20,-8,-21
-148,995,114,-22,-7,-20
-162,994,123,-20,-7,-18
-156,987,125,-20,-5,-18
-157,995,126,-20,-4,-19
-158,1002,139,-19,-5,-16
-150,999,134,-19,-6,-15
-164,1000,121,-20,-4,-16
-154,1006,137,-20,-4,-14
-158,988,128,-19,-5,-14
-165,994,137,-20,-4,-12
-157,988,140,-21,-7,-12
-164,996,146,-20,-6,-12
-162,985,138,-25,-4,-11
-158,1000,138,-20,-4,-10
-150,979,145,-20,-2,-9
-154,990,125,-25,-2,-10
-173,987,139,-23,-2,-9
-165,998,144,-27,-2,-7
-169,993,138,-26,-1,-7
-170,985,150,-28,-3,-7
-165,996,150,-31,-3,-9
-162,988,144,-31,-6,-7
-169,995,138,-32,-4,-8
-159,987,140,-35,-4,-7
-181,987,139,-35,-5,-8
-165,987,142,-37,-8,-9
-174,984,139,-37,-7,-10
-164,983,149,-38,-10,-8
-174,987,144,-38,-13,-9
-165,984,137,-38,-11,-10
-164,988,146,-40,-11,-11
-179,988,142,-41,-13,-10
-169,985,134,-38,-16,-10
-152,983,139,-40,-15,-11
-158,989,121,-38,-16,-9
-174,984,146,-38,-13,-9
-154,994,132,-37,-13,-9
-163,988,146,-35,-11,-6
-162,990,138,-35,-11,-5
-173,984,138,-34,-8,-6
-163,974,129,-35,-8,-6
-163,978,142,-34,-5,-4
-156,977,134,-32,-5,-3
-145,978,140,-30,-3,-2
-152,983,145,-31,0,-2
-158,973,146,-30,-2,-2
-152,982,137,-29,0,2
-154,982,134,-28,2,1
-154,984,140,-27,5,4
-147,987,142,-26,5,5
-145,993,145,-25,6,4
-154,989,154,-28,9,4
-157,982,137,-28,8,5
-147,982,154,-28,6,5
-157,982,140,-27,4,4
-150,978,142,-29,3,6
-159,973,132,-30,4,7
-154,978,156,-28,-1,5
-169,989,137,-31,-2,6
-165,979,157,-32,-3,4
-159,989,168,-31,-3,4
-165,971,140,-35,-6,6
-154,993,148,-34,-6,1
-158,983,139,-31,-7,3
-159,984,134,-34,-7,3
-156,985,172,-35,-9,0
-158,968,148,-33,-7,0
-171,976,152,-34,-8,-1
-159,987,163,-33,-7,-1
-152,965,160,-34,-7,-3
-162,987,150,-32,-8,-2
-162,993,166,-31,-6,-5
-151,973,171,-32,-6,-5
-165,978,146,-32,-8,-4
-157,974,129,-30,-8,-5
-156,976,165,-30,-5,-6
-151,973,137,-29,-8,-6
-163,971,165,-28,-7,-5
-154,976,149,-27,-6,-7
-148,971,161,-24,-6,-6
-151,971,148,-27,-6,-6
-163,985,149,-26,-6,-3
-159,973,149,-22,-6,-5
-148,982,152,-22,-6,-3
-145,978,146,-22,-4,-3
-156,983,154,-20,-5,-2
-144,982,145,-20,-4,-3
-159,973,162,-16,-4,-3
-157,984,161,-18,-4,1
-163,983,155,-16,-3,1
-165,982,162,-15,-3,0
-150,982,154,-15,-3,1
-151,993,162,-17,-2,0
-157,999,169,-13,-4,0
-159,990,149,-13,-4,-1
-157,982,157,-14,-3,1
-167,979,161,-15,-5,-1
-164,976,155,-15,-4,0
-159,978,154,-15,-4,0
-163,978,165,-15,-2,2
-159,982,156,-13,-3,0
-162,988,146,-15,-2,1
-148,979,148,-12,-3,1
-151,976,162,-10,-2,1
-157,973,140,-13,2,2
-163,984,150,-11,-2,2
-154,978,157,-10,0,1
-150,985,155,-10,-1,3
-150,976,150,-11,2,2
-159,974,154,-8,-1,3
-147,984,142,-6,-2,1
-154,989,144,-7,1,2
-170,978,140,-5,-3,2
-144,978,145,-6,-2,1
-156,987,140,-3,-4,3
-156,979,144,-4,-4,2
-154,982,150,-3,-6,2
-156,983,140,-3,-4,2
-151,977,142,-4,-7,4
-157,984,134,-4,-8,3
-158,985,148,-5,-6,1
-158,984,162,-6,-6,1
-164,995,148,-5,-7,3
-162,993,149,-7,-5,1
-150,987,155,-5,-3,2
-163,998,146,-6,-5,-1
-170,988,160,-5,-256,1
-173,988,144,-8,-4,0
-163,993,140,-8,-4,0
-163,998,140,-8,-3,-2
-165,987,140,-10,-2,-1
-163,982,137,-12,-2,1
-156,994,152,-13,-4,-1
-164,990,142,-12,-4,0
-159,990,126,-15,-4,-1
-169,984,145,-15,-3,1
-159,988,129,-17,-3,-1
-159,995,152,-18,-1,2
-154,983,149,-20,-3,2
-154,989,125,-18,-4,1
-156,990,139,-20,0,4
-158,994,145,-20,-1,5
-150,995,133,-19,-3,4
-154,998,156,-19,-1,6
-164,996,126,-20,-1,7
-159,996,152,-21,-1,6
-147,996,154,-21,1,7
-162,994,160,-18,0,10
-152,1002,134,-19,1,9
-154,1007,152,-19,3,9
-157,993,165,-18,1,9
-158,1002,142,-19,0,10
-164,1004,150,-20,1,9
-163,985,165,-19,-3,9
-164,995,144,-19,-2,8
-158,994,140,-17,-2,8
-165,995,126,-16,-3,8
-159,995,131,-16,-3,7
-162,998,133,-13,-3,7
-158,995,133,-13,-3,8
-163,1005,133,-13,-4,6
-165,985,142,-11,-1,7
-162,1002,139,-12,-2,4
-170,995,155,-11,-4,6
-159,995,142,-10,-3,5
-165,993,133,-12,-2,4
-165,1002,128,-8,-4,6
-156,990,120,-8,-5,5
-159,994,128,-10,-5,6
-164,984,138,-9,-6,5
-167,993,138,-8,-5,6
-162,999,120,-10,-6,5
-165,1005,137,-9,-5,6
-164,994,144,-11,-7,5
-164,996,155,-13,-6,5
-167,999,140,-10,-5,7
-167,1006,148,-14,-6,8
-156,995,131,-15,-5,6
-159,989,140,-17,-5,6
-154,995,140,-17,-7,8
-157,989,139,-18,-7,7
-164,1007,131,-21,-4,7
-162,987,128,-22,-4,8
-152,985,137,-22,-5,8
-156,996,125,-22,-2,10
-157,1005,144,-27,-2,8
-164,994,137,-25,-3,8
-162,989,138,-28,0,8
-163,1004,128,-28,1,8
-150,1000,131,-28,0,8
-159,996,145,-30,2,7
-158,1006,148,-31,2,9
-154,999,128,-33,1,8
-145,996,145,-31,1,8
-162,999,133,-31,0,8
-165,995,132,-29,3,7
-170,998,149,-31,2,6
-158,988,137,-32,-1,8
-158,996,142,-31,-2,7
-173,988,145,-31,-1,8
-167,979,129,-30,-3,6
-167,994,140,-31,-5,5
-169,1004,162,-29,-2,5
-165,984,134,-29,-5,5
-162,993,146,-28,-7,2
-162,1000,145,-29,-8,3
-159,995,157,-29,-6,4
-156,996,148,-28,-9,1
-157,990,128,-28,-9,3
-162,990,140,-28,-6,1
-152,988,142,-28,-8,3
-165,994,169,-27,-12,2
-162,987,152,-27,-10,1
-158,974,125,-28,-10,1
-158,988,140,-27,-10,3
-148,985,149,-25,-9,3
-154,987,125,-26,-6,3
-151,990,148,-24,-4,4
-154,989,140,-24,-4,3
-159,973,144,-24,-1,4
-150,979,146,-22,0,4
-157,989,139,-23,1,5
-142,988,162,-22,4,6
-157,982,146,-21,5,5
-147,974,145,-20,3,8
-154,979,162,-21,5,8
-154,1000,162,-20,6,8
-156,998,145,-17,5,9
-158,1002,145,-19,4,9
-165,994,142,-19,7,9
-154,987,146,-19,3,10
-158,1002,162,-17,3,10
-152,990,161,-18,3,8
-157,982,140,-16,4,9
-158,993,146,-20,-2,9
-156,993,152,-17,1,7
-147,988,144,-16,-3,6
-156,993,137,-17,-6,7
-144,993,139,-17,-6,5
-147,978,150,-17,-4,5
-148,988,149,-17,-10,4
-154,988,145,-15,-7,2
-152,989,138,-16,-7,2
-148,994,123,-14,-8,-1
-154,985,165,-16,-6,-2
-159,982,142,-15,-6,-4
-157,1004,137,-16,-8,-4
-163,996,156,-15,-9,-5
-154,984,138,-17,-8,-6
-159,990,154,-16,-11,-8
-152,984,144,-15,-12,-12
-150,987,138,-14,-14,-8
-159,983,142,-16,-13,-11
-158,988,152,-15,-14,-12
-156,996,165,-17,-16,-9
-157,996,132,-16,-17,-12
-157,990,150,-19,-17,-13
-164,999,134,-18,-20,-11
-173,994,140,-18,-18,-13
-163,993,144,-18,-18,-11
-170,988,149,-18,-19,-10
-156,988,150,-19,-19,-13
-150,989,145,-20,-19,-11
-156,988,154,-19,-19,-10
-150,988,129,-17,-19,-8
-163,988,148,-17,-18,-8
-154,989,139,-18,-18,-6
-156,994,149,-16,-19,-7
-151,994,133,-17,-15,-5
-151,988,123,-15,-14,-2
-163,990,133,-13,-12,-4
-158,994,142,-13,-11,-2
-163,996,134,-12,-9,-2
-151,987,145,-10,-10,-1
-162,995,131,-11,-8,-4
-173,990,144,-10,-8,1
-162,987,148,-8,-7,-1
-165,987,129,-8,-7,1
-150,995,133,-8,-6,2
-154,994,137,-8,-5,2
-147,993,144,-8,-5,2
-169,990,131,-7,-4,3
-158,996,139,-9,-5,3
-152,988,122,-7,-5,3
-154,990,129,-9,-4,2
-159,987,139,-10,-3,3
-163,994,125,-14,-5,4
-165,999,140,-14,-2,3
-163,998,149,-13,-1,3
-157,993,138,-16,-1,5
-159,996,140,-18,-1,4
-158,996,149,-18,0,3
-158,999,150,-21,-2,3
-157,999,144,-23,-4,4
-162,987,138,-24,-2,2
-147,993,139,-28,-3,3
-167,987,148,-29,-6,1
-165,987,146,-30,-4,1
-163,979,142,-31,-5,0
-170,995,142,-32,-6,0
-167,989,145,-33,-6,0
-177,979,139,-33,-6,0
-164,987,140,-35,-5,-1
-169,987,154,-33,-5,-2
-170,996,148,-34,-8,0
-167,984,152,-33,-8,-1
-163,979,128,-31,-8,-256
-151,995,126,-32,-9,-3
-152,987,146,-29,-8,0
-167,985,155,-30,-11,-3
-159,989,163,-28,-11,1
-185,987,140,-26,-14,-3
-162,988,157,-25,-12,-2
-162,985,149,-24,-17,-3
-164,988,140,-22,-17,-2
-159,977,154,-21,-19,0
-159,987,149,-20,-18,0
-170,978,144,-19,-21,0
-165,996,154,-16,-21,-2
-164,994,156,-15,-23,0
-164,998,155,-15,-23,-2
-154,985,133,-13,-23,-1
-162,989,137,-15,-23,-1
-163,993,155,-12,-23,-1
-162,987,148,-11,-25,1
-152,990,161,-11,-20,1
-165,993,150,-9,-22,-2
-163,989,140,-8,-20,2
-164,993,155,-6,-20,1
-162,999,138,-4,-17,1
-165,994,116,-4,-19,0
-176,990,140,-3,-17,2
-158,995,150,-3,-14,4
-156,998,133,-1,-17,3
-167,998,132,0,-15,5
-167,983,144,0,-11,3
-167,987,128,-1,-10,7
-170,983,146,-256,-10,7
-170,990,128,-1,-10,7
-167,988,137,-2,-6,7
-162,990,129,-1,-10,5
-162,1000,129,-2,-9,7
-156,988,144,-4,-4,8
-158,1005,128,-5,-5,10
-150,995,129,-7,-6,9
-164,989,140,-7,-6,10
-163,995,142,-13,-6,12
-159,1005,140,-12,-6,12
-159,999,139,-14,-7,11
-157,996,157,-16,-5,10
-164,989,137,-17,-8,11
-164,996,126,-21,-6,9
-152,994,149,-24,-8,12
-162,998,128,-26,-8,10
-157,1002,145,-28,-5,9
-164,998,148,-32,-10,11
-173,999,148,-32,-9,9
-154,1004,137,-35,-10,11
-154,998,145,-35,-11,8
-158,1000,156,-35,-11,6
-170,995,152,-41,-12,7
-158,993,145,-38,-12,6
-164,993,152,-38,-15,6
-158,982,139,-37,-15,5
-151,995,138,-41,-12,4
-159,994,134,-36,-14,6
-152,985,152,-35,-15,5
-152,983,131,-32,-15,6
-158,982,129,-31,-12,6
-144,984,145,-29,-13,6
-147,984,133,-27,-13,4
-141,987,133,-22,-14,4
-154,996,149,-19,-12,4
-154,993,122,-16,-13,6
-156,990,132,-14,-11,7
-164,993,133,-11,-11,4
-167,984,148,-10,-11,6
-164,1004,145,-8,-9,5
-150,995,126,-4,-10,6
-152,995,132,-6,-11,4
-157,998,117,-4,-10,5
-158,984,132,-4,-10,4
-152,983,139,-1,-11,6
-159,995,126,-2,-11,6
-156,987,131,-2,-13,5
-152,988,139,-4,-13,4
-151,989,152,-4,-12,5
-152,996,139,-7,-12,4
-163,998,148,-7,-12,2
-157,994,149,-10,-10,3
-163,989,142,-10,-9,3
-156,982,140,-12,-8,1
-152,995,154,-16,-9,2
-156,999,140,-18,-6,1
-151,989,132,-19,-10,2
-158,995,156,-23,-9,-1
-159,993,152,-22,-10,1
-156,998,137,-26,-14,2
-159,988,145,-27,-12,1
-156,989,139,-28,-9,2
-157,989,145,-29,-12,1
-162,989,134,-33,-12,0
-165,995,144,-30,-12,-2
-164,988,128,-32,-13,-3
-154,999,154,-34,-12,2
-145,1006,138,-30,-12,0
-159,994,126,-34,-16,0
-162,985,152,-30,-14,-1
-167,996,138,-31,-14,2
-159,989,134,-30,-16,-1
-164,998,128,-30,-17,-256
-163,1000,148,-28,-15,-2
-163,996,149,-28,-18,1
-162,995,142,-27,-16,3
-169,998,129,-25,-16,0
-157,1004,126,-26,-14,1
-150,996,126,-23,-16,2
-162,990,129,-24,-17,0
-163,995,134,-22,-12,1
-165,995,133,-20,-15,1
-165,990,128,-20,-11,1
-162,995,125,-17,-14,2
-163,999,148,-18,-10,3
-158,989,138,-18,-12,1
-158,987,160,-18,-12,2
-163,995,146,-17,-10,1
-165,990,139,-19,-9,3
-159,988,144,-18,-9,3
-152,990,134,-18,-8,0
-177,983,145,-20,-12,3
-150,984,150,-21,-9,5
-176,977,145,-21,-8,1
-165,998,144,-21,-11,4
-164,1002,145,-23,-10,5
-164,979,146,-22,-6,5
-157,983,149,-23,-10,4
-165,985,133,-26,-11,7
-163,985,154,-26,-8,5
-152,984,154,-27,-9,9
-157,988,148,-28,-9,8
-154,982,152,-25,-8,8
-156,983,137,-28,-7,9
-162,988,146,-28,-6,11
-162,994,146,-25,-9,12
-164,989,146,-24,-7,11
-167,996,160,-26,-5,14
-150,984,150,-25,-7,15
-152,990,148,-23,-6,13
-165,978,144,-20,-4,16
-157,987,149,-20,-5,16
-163,995,142,-19,-3,18
-145,985,149,-15,-2,18
-154,985,148,-17,-2,19
-150,990,144,-14,-1,18
-152,985,132,-12,-1,21
-148,978,134,-12,3,22
-150,984,148,-10,1,21
-150,990,133,-8,1,21
-152,989,145,-5,2,22
-154,993,134,-6,1,18
-147,985,142,-4,0,20
-154,995,134,-4,1,19
-154,988,138,-3,-3,18
-158,990,148,-4,-4,17
-156,987,150,-2,-2,16
-157,988,138,-1,-5,13
-157,994,165,-3,-5,11
-151,996,146,-1,-6,10
-147,994,148,-6,-8,12
-139,989,160,-5,-9,9
-150,998,149,-5,-9,6
-145,987,142,-8,-11,6
-154,1000,149,-9,-10,6
-154,999,134,-8,-10,3
-152,993,140,-11,-11,3
-152,989,142,-10,-13,1
-156,993,139,-13,-13,-1
-151,987,140,-14,-14,-1
-156,987,149,-16,-13,-3
-151,998,131,-16,-17,-3
-151,994,149,-15,-17,-1
-151,993,154,-13,-17,-3
-164,987,134,-16,-18,-5
-157,996,126,-15,-22,-7
-152,1002,132,-17,-22,-7
-152,996,137,-17,-23,-7
-148,999,139,-17,-24,-9
-151,989,163,-16,-23,-7
-145,985,132,-18,-22,-5
-139,994,140,-19,-23,-6
-147,999,128,-20,-24,-6
-148,982,134,-18,-22,-4
-144,988,134,-17,-20,-3
-152,987,133,-14,-20,-1
-134,995,132,-18,-15,-1
-130,976,122,-15,-10,0
-140,993,128,-17,-9,2
-142,976,120,-13,-2,4
-142,998,123,-14,255,5
-141,996,121,-13,2,7
-145,994,138,-10,4,7
-162,989,121,-11,7,10
-152,993,142,-10,5,9
-150,996,133,-8,8,10
-147,990,148,-8,9,10
-147,989,145,-8,6,10
-158,999,144,-7,2,8
-162,1000,131,-6,1,8
-158,1002,137,-8,-3,7
-163,1005,138,-6,-8,7
-162,1007,123,-7,-9,7
-165,1006,134,-9,-10,4
-159,998,150,-8,-13,5
-157,998,142,-7,-18,2
-157,988,156,-10,-17,1
-152,995,131,-9,-19,0
-158,989,128,-8,-20,0
-150,983,139,-10,-21,0
-162,977,144,-12,-17,-2
-158,996,132,-11,-18,-4
-159,987,129,-14,-15,-3
-158,982,121,-11,-15,-6
-162,988,116,-12,-12,-3
-164,998,134,-10,-13,-4
-159,990,142,-12,-14,-5
-150,999,134,-12,-12,-3
-157,988,134,-12,-12,-6
-157,1004,139,-10,-14,-6
-165,989,155,-13,-12,-4
-150,993,122,-11,-12,-3
-164,1004,145,-12,-16,-2
-158,998,145,-11,-15,-4
-157,1002,129,-12,-17,1
-159,996,122,-14,-19,-3
-165,999,139,-13,-21,0
-159,1005,137,-16,-22,0
-156,1002,144,-17,-20,2
-150,1002,137,-17,-23,1
-151,993,128,-19,-23,3
-162,989,148,-20,-21,3
-156,994,131,-21,-20,5
-165,1004,138,-23,-23,6
-152,1002,149,-22,-20,8
-162,1009,139,-23,-20,9
-163,993,144,-25,-18,8
-157,1006,134,-22,-16,9
-157,1000,122,-25,-17,9
-156,998,122,-25,-16,10
-156,988,133,-24,-15,11
-158,1000,126,-24,-16,9
-154,1002,123,-23,-11,9
-144,1000,126,-24,-12,9
-148,1021,142,-22,-12,8
-157,1005,121,-21,-11,8
-169,1009,132,-22,-11,8
-147,1006,134,-20,-9,7
-152,1000,128,-19,-10,6
-156,999,137,-20,-10,5
-174,1006,123,-21,-12,5
-142,1009,114,-21,-14,5
-156,1011,133,-20,-13,5
-152,996,131,-21,-12,3
-163,1006,132,-19,-12,3
-152,1004,123,-20,-15,2
-159,1011,139,-24,-14,3
-159,1007,145,-23,-16,2
-152,1007,128,-22,-18,4
-157,1015,131,-25,-20,1
-151,1006,140,-28,-23,2
-151,1007,128,-28,-19,2
-152,995,139,-28,-23,1
-148,1002,142,-30,-22,2
-158,1006,133,-31,-21,-1
-157,1002,116,-29,-22,-1
-156,1000,123,-32,-24,-1
-159,1009,133,-34,-19,-1
-157,999,125,-33,-21,-2
-163,1011,154,-33,-20,-2
-150,1000,132,-33,-21,-3
-156,1002,120,-33,-20,0
-145,999,123,-32,-20,-1
-156,993,129,-33,-17,-4
-162,993,133,-35,-18,-2
-148,999,126,-35,-18,2
-152,995,131,-33,-13,0
-151,1004,149,-38,-11,-1
-152,1000,131,-34,-12,2
-150,999,129,-35,-10,4
-136,999,140,-35,-7,3
-159,1000,134,-37,-6,5
-157,995,131,-36,-4,4
-150,988,149,-35,-5,5
-148,996,145,-37,-3,8
-142,1002,126,-36,-3,8
-148,1000,152,-37,-6,8
-147,985,148,-37,-2,9
-152,994,145,-38,-2,9
-150,993,157,-37,-5,7
-162,995,140,-38,-5,10
-145,978,160,-37,-6,8
-152,983,145,-37,-4,8
-157,989,155,-37,-6,10
-162,993,152,-36,-5,8
-154,985,142,-36,-9,7
-157,988,134,-34,-7,9
-151,990,149,-32,-10,6
-159,984,133,-33,-12,6
-148,982,140,-31,-12,3
-154,995,138,-30,-14,2
-157,989,146,-30,-17,-1
-151,995,146,-30,-19,-2
-157,988,160,-26,-21,-1
-154,995,155,-29,-24,-3
-164,988,128,-25,-25,-5
-147,998,144,-24,-30,-8
-156,994,152,-22,-30,-8
-162,989,166,-24,-33,-11
-165,1000,138,-21,-30,-11
-156,1005,144,-22,-33,-12
-156,999,146,-20,-31,-13
-159,996,144,-20,-32,-13
-162,1004,150,-19,-33,-12
-157,996,156,-17,-30,-14
-158,993,154,-19,-34,-13
-151,994,138,-17,-30,-13
-154,996,145,-17,-32,-14
-154,999,146,-17,-29,-12
-162,989,148,-17,-28,-9
-157,998,132,-16,-28,-11
-148,984,132,-19,-24,-8
-145,988,145,-19,-23,-8
-144,988,138,-17,-21,-6
-144,989,131,-18,-16,-4
-148,995,132,-20,-13,-2
-159,994,144,-18,-11,0
-145,995,146,-21,-10,1
-154,988,145,-23,-7,4
-144,995,139,-20,-7,5
-141,993,132,-23,-4,7
-136,999,126,-23,-5,9
-156,999,132,-25,-2,10
-156,989,134,-24,0,10
-158,1004,138,-27,-3,11
-152,989,139,-26,-6,12
-167,999,138,-28,-3,12
-162,985,144,-29,-5,13
-170,999,155,-30,-7,13
-156,988,140,-30,-6,11
-152,995,137,-33,-5,12
-159,999,152,-31,-7,11
-152,999,144,-33,-5,11
-167,994,132,-33,-6,14
-158,999,140,-33,-7,12
-156,990,142,-33,-5,11
-152,990,152,-32,-4,11
-162,989,137,-33,-6,7
-150,990,129,-29,-7,8
-154,995,134,-30,-4,8
-150,998,132,-31,-5,6
-157,985,126,-30,-3,7
-159,996,122,-27,-2,5
-148,995,128,-29,-4,6
-147,982,150,-28,-4,4
-147,988,126,-27,-6,1
-157,983,139,-26,-5,1
-157,984,131,-28,-7,2
-158,985,125,-25,-9,1
-147,983,112,-28,-9,-1
-151,993,123,-28,-11,0
-147,994,144,-27,-10,-3
-152,977,128,-28,-11,-2
-144,979,148,-29,-10,-5
-152,979,138,-26,-9,-7
-165,983,133,-31,-10,-7
-159,987,128,-32,-8,-5
-151,984,142,-34,-8,-6
-163,982,131,-35,-9,-8
-154,985,138,-34,-9,-8
-158,982,139,-41,-10,-9
-162,989,149,-42,-7,-9
-154,983,148,-43,-8,-7
-171,982,152,-47,-9,-8
-163,1002,146,-51,-9,-8
-171,982,155,-50,-8,-8
-170,978,145,-51,-8,-8
-174,990,150,-55,-7,-5
-163,985,154,-56,-7,-5
-171,987,163,-58,-9,-4
-167,987,145,-59,-10,-2
-177,988,166,-61,-9,0
-171,995,168,-62,-11,-1
-162,996,169,-62,-8,3
-162,985,154,-66,-9,4
-164,999,171,-65,-11,4
-167,994,172,-65,-7,8
-164,979,161,-65,-9,11
-173,998,168,-65,-7,13
-162,983,168,-63,-8,16
-159,993,168,-63,-7,20
-152,988,171,-63,-4,21
-156,988,145,-60,-4,24
-157,988,150,-57,-2,28
-147,985,163,-54,1,32
-145,996,152,-50,4,32
-142,990,138,-45,7,35
-163,993,138,-41,10,38
-157,984,139,-39,10,41
-154,987,146,-34,13,42
-154,995,145,-30,14,43
-141,987,145,-25,13,45
-145,999,154,-21,15,47
-158,1004,155,-21,14,48
-156,1004,140,-17,14,48
-157,1007,142,-15,13,49
-148,996,144,-14,14,48
-147,1005,150,-12,11,47
-142,994,155,-15,11,48
-141,1004,161,-13,13,47
-144,995,152,-15,10,43
-141,995,149,-15,11,43
-148,998,157,-17,11,46
-140,998,150,-17,7,40
-136,999,156,-18,8,42
-144,1007,156,-21,8,38
-139,1005,132,-22,7,34
-134,1000,145,-24,6,33
-147,1005,144,-27,8,30
-135,1005,139,-25,5,27
-157,1002,139,-28,4,24
-136,999,133,-30,2,21
-148,1007,140,-30,2,19
-148,1012,126,-29,0,15
-136,1011,126,-32,-5,12
-141,993,140,-32,-6,9
-144,1002,137,-32,-8,6
-142,1016,128,-33,-11,4
-136,1006,132,-35,-13,2
-140,1000,139,-36,-14,0
-152,1000,131,-36,-16,-5
-136,1004,120,-39,-17,-3
-140,1005,132,-39,-18,-6
-142,1004,145,-40,-17,-5
-134,1000,129,-39,-13,-7
-136,1007,139,-43,-17,-7
-135,994,117,-42,-14,-6
-136,1009,116,-44,-11,-7
-125,1004,137,-42,-11,-6
-139,1002,134,-45,-9,-5
-130,1007,128,-45,-6,-7
-152,1004,140,-45,-5,-7
-133,1007,144,-45,-3,-5
-142,1006,137,-45,-1,-3
-145,1000,139,-46,-1,-5
-151,1021,149,-48,-4,-2
-148,1017,125,-47,-2,-1
-136,1005,132,-45,-5,-1
-148,1006,128,-49,-3,-1
-145,996,138,-47,-4,2
-140,1012,112,-48,-4,2
-144,1007,121,-48,-6,1
-140,1006,140,-47,-6,3
-147,1005,137,-47,-6,3
-158,1013,120,-48,-4,4
-142,1006,133,-49,-5,6
-145,1000,146,-50,-2,4
-151,1017,145,-49,0,6
-150,1016,137,-50,3,5
-141,1012,138,-48,2,6
-150,1005,122,-51,5,6
-144,999,146,-51,4,5
-145,994,121,-53,3,6
-150,1006,132,-52,7,5
-145,1004,131,-52,7,3
-162,1004,129,-56,5,3
-157,985,132,-56,8,3
-151,998,139,-56,11,6
-157,1013,146,-57,9,5
-151,996,133,-59,11,3
-157,998,117,-59,10,3
-167,1004,132,-59,11,2
-154,1007,139,-61,12,2
-141,999,140,-63,11,1
-163,1004,145,-61,11,3
-152,996,138,-66,8,0
-158,998,142,-66,8,0
-154,1000,138,-67,6,4
-162,989,138,-71,6,1
-140,990,142,-69,4,2
-162,988,132,-70,4,1
-162,984,138,-72,4,4
-154,990,146,-73,4,3
-150,987,131,-74,7,4
-157,993,137,-75,5,4
-145,998,128,-74,6,3
-151,999,145,-77,6,5
-164,995,146,-77,8,4
-156,993,144,-77,4,5
-158,977,149,-78,8,5
-162,998,157,-77,9,5
-148,994,154,-76,8,4
-150,977,156,-79,7,4
-158,987,155,-77,7,4
-167,993,146,-76,9,5
-156,987,156,-78,8,5
-147,983,138,-76,8,6
-165,989,142,-77,11,7
-152,983,168,-77,7,6
-157,983,169,-76,9,9
-147,996,150,-77,10,7
-157,988,162,-74,8,10
-150,990,162,-76,8,10
-150,985,157,-73,8,9
-156,982,161,-74,10,14
-158,989,182,-71,11,12
-165,977,182,-74,8,13
-163,977,180,-71,11,16
-158,983,163,-73,11,14
-157,983,178,-71,11,16
-147,968,168,-71,10,17
-150,985,161,-71,11,16
-159,982,161,-70,11,17
-152,983,177,-71,9,17
-157,979,174,-72,7,17
-157,995,177,-66,9,16
-162,985,182,-68,10,17
-151,985,182,-67,8,17
-151,979,182,-66,7,17
-148,979,168,-65,7,16
-150,996,182,-65,5,16
-158,995,173,-64,4,15
-154,983,191,-61,3,12
-147,979,166,-59,0,12
-154,965,179,-57,-1,12
-148,979,168,-58,1,9
-148,979,173,-54,0,12
-139,973,154,-52,2,10
-139,978,163,-50,5,10
-135,979,178,-48,6,11
-140,984,166,-46,7,10
-145,968,168,-47,8,8
-144,974,177,-45,7,10
-147,970,168,-44,8,9
-139,974,168,-41,6,9
-145,979,195,-41,5,9
-142,971,171,-41,5,9
-144,977,186,-41,3,9
-144,979,185,-41,3,9
-144,976,191,-42,1,11
-157,990,195,-43,0,9
-136,973,180,-43,1,12
-147,983,180,-44,1,9
-141,973,184,-43,-256,11
-152,979,172,-43,-1,10
-133,985,185,-42,-2,10
-142,985,178,-44,-5,11
-151,978,189,-44,-4,10
-144,978,194,-43,-3,8
-151,987,185,-46,-4,11
-142,974,180,-43,-5,9
-152,990,156,-43,-3,9
-133,977,174,-44,-3,7
-139,979,177,-43,-1,6
-145,987,172,-40,-2,6
-128,988,184,-40,1,4
-145,979,168,-37,-1,4
-141,982,185,-38,2,5
-142,978,185,-36,3,4
-147,977,168,-35,4,4
-136,974,174,-33,2,3
-128,982,165,-31,4,2
-134,982,201,-32,4,1
-129,984,178,-29,5,2
-127,983,184,-28,6,1
-123,983,188,-28,4,3
-130,978,178,-27,5,2
-133,983,200,-26,4,1
-128,995,166,-23,1,2
-130,973,179,-24,4,2
-129,968,179,-24,1,1
-135,994,178,-24,-1,-1
-141,985,189,-21,-2,-256
-139,982,177,-20,-3,-3
-139,984,184,-21,-8,-3
-147,989,182,-20,-7,-4
-147,989,184,-21,-10,-5
-150,984,185,-20,-14,-5
-134,979,196,-19,-14,-9
-142,987,191,-21,-14,-9
-135,983,186,-19,-16,-10
-140,990,177,-19,-17,-11
-142,978,188,-19,-18,-13
-141,985,182,-20,-19,-12
-136,988,174,-19,-22,-14
-150,987,184,-18,-20,-14
-151,987,179,-18,-20,-15
-142,983,171,-19,-22,-15
-151,999,165,-15,-22,-16
-136,984,160,-16,-22,-18
-152,976,161,-16,-23,-18
-144,989,177,-18,-24,-18
-151,971,160,-15,-22,-18
-139,988,165,-18,-23,-18
-145,984,172,-15,-23,-18
-148,978,172,-17,-21,-17
-139,976,174,-17,-18,-15
-136,974,171,-18,-17,-15
-127,979,168,-18,-14,-13
-142,978,162,-20,-10,-13
-135,974,152,-21,-12,-9
-129,983,162,-20,-5,-8
-134,983,180,-23,-4,-6
-125,983,169,-24,0,-3
-142,982,178,-24,2,-2
-142,989,173,-26,5,0
-156,985,172,-27,5,0
-144,987,166,-28,6,-2
-152,987,177,-29,7,4
-158,984,169,-30,9,4
-151,994,185,-31,8,5
-157,984,191,-34,9,6
-156,990,182,-35,8,7
-141,990,192,-35,9,5
-163,987,173,-36,7,7
-156,983,186,-36,5,7
-154,989,185,-38,4,8
-159,994,179,-38,4,5
-140,977,174,-40,2,8
-154,983,161,-40,3,5
-150,978,163,-41,0,7
-154,978,160,-39,1,4
-158,973,182,-38,2,4
-151,988,166,-38,2,4
-164,976,161,-36,3,5
-156,993,160,-37,1,4
-163,987,163,-35,-1,4
-163,988,173,-33,-1,4
-151,993,173,-33,-4,-1
-167,988,174,-31,-5,0
-164,987,180,-30,-7,-1
-173,1000,177,-29,-11,-2
-170,983,162,-27,-12,-4
-165,998,162,-27,-14,-4
-163,987,156,-27,-17,-3
-170,990,165,-25,-18,-3
-170,990,160,-24,-18,-3
-156,989,155,-24,-21,-3
-159,985,172,-22,-21,-6
-157,985,155,-23,-20,-4
-150,988,154,-24,-21,-3
-162,983,171,-25,-20,-1
-147,987,156,-25,-18,0
-157,987,172,-28,-17,1
-158,984,165,-28,-14,3
-163,984,149,-29,-14,3
-151,987,154,-32,-10,5
-164,976,154,-31,-9,7
-163,994,172,-33,-7,10
-152,985,169,-34,-3,12
-158,987,160,-35,-2,12
-164,978,157,-38,0,17
-158,978,166,-39,4,17
-154,968,155,-41,4,18
-158,984,171,-42,6,20
-147,970,168,-45,8,21
-150,984,160,-49,9,24
-159,984,160,-49,11,25
-151,988,165,-50,10,27
-148,988,154,-54,11,28
-159,994,162,-53,13,30
-145,993,162,-56,13,29
-157,982,171,-59,13,32
-164,990,166,-60,16,31
-156,985,184,-61,13,31
-152,995,169,-63,13,35
-154,983,168,-64,13,35
-147,987,191,-64,12,34
-144,985,179,-65,11,33
-154,977,168,-68,10,34
-151,971,174,-67,11,34
-156,989,172,-67,9,35
-159,985,168,-68,10,33
-150,987,172,-66,9,32
-158,984,174,-65,11,32
-156,989,172,-64,7,32
-154,985,172,-62,6,29
-151,987,168,-60,3,30
-162,974,174,-59,3,28
-140,989,177,-57,3,25
-152,993,185,-53,1,26
-150,985,163,-54,-1,26
-142,985,196,-52,-2,21
-156,979,160,-49,-4,20
-162,993,165,-46,-2,20
-141,982,172,-47,-7,18
-144,989,171,-42,-6,15
-152,982,174,-44,-9,14
-142,987,186,-40,-10,15
-145,984,191,-39,-11,12
-145,984,182,-38,-12,11
-152,987,182,-36,-10,13
-151,988,196,-37,-12,11
-142,988,186,-34,-9,12
-154,977,186,-33,-8,12
-145,990,194,-35,-8,12
-151,993,191,-33,-8,12
-147,994,179,-32,-7,11
-142,990,179,-33,-8,12
-147,983,191,-33,-8,14
-150,994,177,-32,-5,13
-145,998,205,-30,-6,13
-135,988,184,-33,-4,15
-134,983,191,-33,-3,17
-130,989,189,-31,-2,17
-133,988,186,-35,2,19
-139,974,188,-33,2,20
-134,978,184,-31,6,24
-134,985,180,-32,8,22
-135,978,182,-32,9,24
-129,988,196,-33,13,26
-125,979,197,-36,16,25
-119,979,197,-33,16,27
-123,990,184,-34,18,29
-128,987,180,-35,18,29
-123,979,194,-32,18,28
-122,979,192,-33,18,29
-122,979,185,-32,17,28
-139,978,186,-33,16,26
-130,973,189,-33,16,24
-129,983,203,-31,12,25
-135,982,191,-31,12,23
-129,993,197,-31,8,19
-130,985,211,-30,8,18
-145,993,200,-27,6,17
-130,988,194,-29,1,11
-133,979,194,-27,-2,10
-150,985,197,-25,-6,5
-141,998,185,-25,-9,2
-129,987,182,-20,-12,-1
-133,990,194,-20,-14,-2
-133,985,179,-19,-17,-6
-142,984,191,-17,-18,-10
-136,978,189,-17,-21,-12
-134,985,182,-15,-21,-11
-119,990,182,-13,-21,-15
-135,982,172,-10,-20,-17
-125,978,174,-11,-22,-19
-127,982,179,-7,-17,-19
-121,982,185,-7,-18,-19
-130,979,178,-3,-17,-21
-127,988,177,-2,-13,-21
-133,978,179,-1,-11,-22
-142,984,188,-2,-11,-22
-135,976,186,-2,-11,-20
-140,982,172,-1,-9,-20
-128,982,166,0,-8,-20
-135,978,163,-1,-6,-19
-128,978,174,2,-6,-17
-135,976,180,-3,-6,-15
-134,983,188,-2,-5,-16
-139,979,180,-4,-3,-17
-133,983,177,-5,-5,-12
-140,977,172,-6,-3,-11
-134,974,189,-6,-2,-11
-139,977,169,-8,-2,-10
-129,979,184,-12,-3,-11
-127,983,172,-12,-2,-8
-142,973,179,-16,-2,-8
-130,983,182,-15,-1,-7
-134,983,188,-16,-2,-8
-136,983,174,-18,-2,-7
-129,968,191,-19,0,-6
-136,984,179,-19,-1,-5
-142,988,169,-21,255,-5
-141,989,178,-21,-1,-6
-156,978,165,-22,-1,-8
-147,976,179,-20,-2,-7
-145,994,174,-21,-2,-8
-142,984,179,-21,-1,-10
-162,978,178,-18,-2,-11
-162,988,171,-19,-4,-12
-147,988,178,-18,-5,-10
-147,973,171,-17,-6,-12
-144,982,166,-15,-9,-12
-133,979,172,-17,-10,-12
-165,995,182,-14,-10,-15
-159,993,157,-13,-13,-12
-156,984,180,-12,-14,-12
-156,985,169,-9,-13,-10
-136,985,179,-10,-15,-9
-147,976,182,-9,-15,-10
-145,987,171,-5,-13,-9
-156,979,172,-7,-13,-9
-147,977,177,-3,-10,-6
-142,987,177,-4,-9,-5
-142,982,174,-5,-8,-3
-144,984,163,-2,-7,-2
-140,995,174,-5,-5,-3
-151,990,184,-1,-7,-1
-135,993,160,-3,-5,0
-147,995,172,-6,-5,1
-154,990,182,-5,-6,2
-154,984,173,-5,-6,0
-151,987,172,-9,-8,2
-158,990,173,-9,-8,2
-152,1000,189,-10,-9,2
-150,998,168,-11,-10,0
-157,990,178,-11,-11,1
-167,985,179,-15,-12,1
-164,988,163,-14,-12,0
-152,999,197,-17,-14,1
-152,988,163,-16,-15,-1
-165,996,179,-19,-16,0
-142,994,174,-19,-16,-2
-158,990,171,-19,-16,-4
-150,987,184,-20,-16,-2
-150,996,174,-20,-17,-3
-159,990,169,-20,-19,-1
-154,995,174,-19,-18,0
-157,993,168,-23,-18,-3
-151,994,169,-22,-17,-1
-152,996,171,-24,-17,-2
-147,996,171,-24,-17,255
-152,1005,162,-25,-16,0
-152,994,166,-23,-14,3
-144,993,165,-22,-12,2
-157,1000,162,-22,-11,7
-142,1000,154,-22,-12,6
-145,995,169,-21,-9,8
-150,994,171,-22,-9,10
-142,1000,168,-21,-6,9
-157,990,178,-20,-4,14
-145,1004,162,-23,-3,13
-141,1000,174,-23,255,13
-145,999,169,-21,-1,17
-144,1005,166,-24,1,18
-148,1005,165,-24,2,21
-139,993,178,-26,3,19
-136,996,184,-27,3,21
-141,1009,171,-27,4,23
-140,996,178,-29,6,22
-135,990,161,-29,4,22
-135,1006,172,-30,3,23
-136,994,169,-32,3,24
-136,996,177,-33,4,22
-144,994,186,-31,-1,24
-136,998,178,-34,1,23
-152,994,186,-34,0,23
-145,996,166,-35,1,21
-141,987,162,-35,0,20
-140,988,173,-36,-1,19
-139,985,179,-36,-2,18
-130,999,171,-36,-3,16
-136,996,166,-36,-5,16
-142,996,173,-39,-5,13
-139,989,172,-35,-6,11
-154,989,171,-37,-7,10
-142,996,177,-35,-9,10
-128,1000,174,-36,-8,8
-148,1002,186,-37,-9,7
-130,989,171,-37,-8,5
-141,1000,182,-38,-12,5
-130,990,162,-36,-12,4
-141,994,169,-36,-12,4
-139,996,169,-38,-15,2
-133,995,171,-39,-15,1
-154,988,177,-38,-14,1
-134,995,188,-38,-15,-1
-144,996,182,-37,-16,1
-134,998,172,-36,-14,-256
-134,985,173,-37,-15,1
-136,998,180,-37,-16,1
-127,990,172,-36,-14,0
-135,988,184,-36,-15,2
-127,995,163,-36,-14,2
-122,1000,174,-36,-12,3
-136,994,169,-34,-11,5
-128,989,172,-32,-12,6
-139,987,169,-32,-9,5
-129,988,178,-32,-8,4
-118,993,162,-30,-6,5
-133,989,189,-30,-5,7
-135,990,166,-30,-2,6
-136,989,173,-28,0,8
-129,988,180,-27,2,7
-133,990,174,-26,3,6
-130,990,169,-27,4,7
-139,989,188,-24,7,4
-130,983,185,-26,8,6
-129,984,178,-27,8,5
-140,987,185,-28,10,3
-135,996,171,-26,10,2
-140,985,185,-26,8,4
-128,979,179,-28,8,4
-139,983,177,-30,4,-256
-142,976,182,-32,6,0
-142,990,188,-33,5,255
-123,983,184,-34,4,0
-128,966,179,-37,3,-1
-150,976,203,-37,2,-1
-140,983,179,-37,3,-1
-130,977,185,-40,2,-3
-123,974,184,-41,-2,-2
-147,978,194,-42,-2,-5
-135,970,197,-41,-4,-5
-141,978,173,-43,-5,-5
-142,967,194,-42,-8,-8
-142,974,182,-42,-10,-9
-144,976,185,-42,-11,-7
-147,984,182,-41,-11,-11
-154,970,186,-41,-13,-11
-145,976,178,-39,-14,-13
-142,976,173,-39,-17,-12
-141,976,180,-37,-18,-13
-144,971,173,-36,-16,-13
-142,977,203,-34,-19,-15
-140,983,191,-30,-21,-14
-145,976,184,-28,-19,-15
-142,977,180,-26,-21,-14
-136,974,177,-24,-19,-14
-133,973,178,-23,-15,-15
-147,982,189,-22,-16,-11
-151,985,169,-18,-18,-12
-136,976,178,-15,-14,-11
-148,983,171,-15,-16,-11
-144,965,162,-13,-11,-10
-141,978,169,-11,-11,-8
-142,967,189,-7,-9,-8
-145,971,179,-8,-8,-5
-144,973,185,-8,-6,-3
-135,983,179,-6,-7,-3
-148,983,177,-6,-6,-3
-139,979,189,-6,-4,0
-144,987,182,-5,-4,1
-145,966,188,-6,-4,4
-145,979,177,-3,-3,3
-150,974,169,-5,-3,4
-144,993,185,-3,-3,3
-139,979,186,-4,-2,5
-145,985,194,-5,0,6
-156,978,184,-6,-3,6
-144,979,169,-7,-2,4
-158,982,188,-7,-1,5
-140,982,185,-8,-5,8
-156,979,184,-8,-1,5
-139,988,184,-10,-3,3
-145,978,192,-8,-3,3
-159,985,174,-12,-3,5
-159,976,189,-11,-4,4
-142,974,186,-13,-5,6
-144,990,166,-13,-7,4
-141,982,168,-14,-4,3
-140,990,192,-15,-6,2
-140,978,189,-14,-5,1
-156,976,182,-18,-7,1
-134,983,166,-17,-6,1
-156,968,179,-16,-5,2
-150,983,182,-16,-7,1
-139,985,179,-16,-6,1
-156,976,186,-20,-5,2
-144,970,178,-19,-6,2
-145,971,185,-18,-8,2
-140,978,189,-18,-8,2
-147,967,191,-20,-8,3
-152,988,179,-18,-7,5
-150,970,185,-19,-9,4
-145,973,184,-20,-9,6
-145,978,177,-19,-7,4
-142,978,173,-17,-9,6
-142,965,166,-17,-4,9
-134,976,182,-16,-4,9
-145,979,188,-12,-3,9
-141,985,184,-13,-3,9
-150,984,168,-11,-1,11
-150,979,173,-13,-1,11
-136,967,182,-10,0,12
-140,1000,185,-7,0,15
-140,979,178,-9,-1,14
-133,983,180,-8,255,15
-139,976,179,-6,0,15
-128,976,172,-4,0,16
-142,994,184,-3,0,17
-140,983,188,-5,0,17
-134,983,195,-3,1,14
-136,976,178,-1,0,15
-140,974,160,0,0,16
-135,984,182,0,-1,16
-148,982,180,4,-1,16
-141,982,168,1,255,16
-140,985,178,0,-2,16
-142,978,173,4,-3,14
-140,993,163,5,0,15
-128,978,180,2,1,16
-147,994,172,4,1,11
-136,979,172,3,2,11
-136,978,191,3,3,12
-144,973,172,4,3,13
-135,984,192,3,2,13
-142,974,173,1,2,11
-148,978,195,0,3,14
-130,978,184,1,2,13
-141,970,177,-3,3,13
-142,970,180,-2,4,13
-136,976,186,-5,2,12
-141,968,191,-2,1,13
-130,985,180,-5,1,12
-141,970,178,-5,-3,13
-145,970,178,-5,-2,12
-145,987,173,-6,-4,12
-147,989,191,-6,-10,12
-144,968,156,-5,-12,13
-133,984,162,-6,-16,11
-133,983,166,-3,-17,12
-141,970,156,-4,-22,10
-150,990,171,-3,-20,10
-147,984,163,0,-21,10
-150,979,142,-2,-23,10
-140,970,155,2,-23,8
-142,982,178,2,-22,7
-145,982,161,3,-22,7
-148,983,154,6,-24,7
-142,984,156,4,-20,5
-141,984,145,6,-19,6
-144,984,154,8,-20,4
-139,994,149,7,-17,5
-139,989,156,6,-15,2
-150,994,156,6,-16,5
-135,987,160,7,-14,2
-150,990,161,9,-13,1
-142,995,162,9,-12,1
-145,996,165,8,-13,1
-148,1002,162,8,-11,-2
-145,994,163,7,-13,1
-142,1004,154,7,-15,0
-147,998,171,4,-12,3
-141,998,145,4,-16,-1
-148,1007,149,4,-17,-2
-162,999,161,1,-16,-2
-148,1005,165,2,-18,0
-157,1006,154,-1,-20,-2
-157,1005,162,-4,-19,-3
-167,989,169,-4,-19,-1
-156,994,169,-7,-22,-2
-142,994,157,-7,-21,-4
-151,993,168,-10,-24,-3
-154,1000,177,-12,-29,-2
-148,996,155,-13,-29,-4
-152,988,157,-14,-28,-1
-157,998,169,-15,-26,-3
-162,1000,163,-18,-26,-3
-163,1002,168,-18,-25,-3
-162,1000,160,-19,-23,-7
-163,1005,163,-20,-20,-6
-154,1005,161,-21,-19,-4
-157,995,177,-19,-17,-7
-156,1013,184,-21,-20,-5
-154,1013,173,-20,-22,-5
-147,996,180,-23,-22,-9
-147,1005,172,-23,-24,-6
-148,1012,174,-22,-26,-5
-158,1016,174,-21,-26,-4
-158,1006,178,-23,-28,-4
-159,998,171,-21,-27,-5
-140,1000,171,-22,-25,-4
-159,1000,184,-21,-25,-3
-163,1009,179,-21,-24,255
-145,1009,173,-20,-23,0
-158,1005,163,-21,-24,-2
-145,1016,165,-21,-20,2
-147,1005,163,-20,-20,4
-139,1007,174,-19,-20,3
-147,1006,169,-19,-21,6
-154,994,177,-19,-20,6
-136,989,163,-17,-22,9
-151,993,171,-17,-20,9
-151,995,160,-18,-18,8
-152,995,171,-16,-18,9
-140,1006,177,-16,-16,12
-145,988,165,-15,-18,11
-141,990,169,-16,-16,12
-154,1002,165,-17,-14,13
-142,999,161,-18,-16,10
-145,998,185,-16,-15,10
-142,996,168,-18,-13,10
-164,994,165,-19,-15,11
-147,995,172,-21,-14,9
-147,996,162,-19,-14,10
-147,996,171,-22,-14,8
-150,994,177,-24,-14,8
-157,994,155,-23,-12,8
-135,1002,168,-26,-13,10
-147,993,162,-26,-9,7
-147,982,174,-29,-12,8
-147,994,179,-32,-11,7
-136,984,173,-33,-7,8
-141,994,174,-34,-8,8
-145,990,178,-35,-9,9
-135,1000,189,-36,-10,8
-139,983,168,-38,-9,10
-147,999,185,-38,-10,8
-130,987,166,-40,-10,10
-135,996,163,-39,-7,10
-128,984,156,-40,-9,12
-133,989,174,-39,-7,12
-130,990,162,-40,-7,13
-145,996,173,-42,-8,14
-127,990,168,-38,-7,14
-135,987,165,-39,-8,13
-139,994,177,-38,-6,14
-144,983,173,-38,-8,15
-129,987,179,-36,-8,16
-119,985,163,-36,-9,15
-142,983,156,-35,-8,16
-135,994,172,-33,-9,15
-128,973,173,-33,-10,10
-127,987,165,-31,-10,11
-141,990,165,-30,-12,11
-134,983,172,-28,-10,10
-139,987,173,-29,-12,10
-130,973,171,-30,-12,8
-129,977,163,-25,-13,9
-140,979,173,-25,-12,6
-134,979,179,-22,-12,5
-135,982,169,-25,-15,4
-136,985,174,-24,-15,1
-113,979,173,-21,-17,0
-122,987,177,-22,-14,-1
-141,984,174,-22,-16,-3
-140,984,172,-21,-14,-4
-128,978,173,-23,-15,-4
-136,982,182,-23,-16,-5
-128,979,169,-22,-16,-5
-139,982,188,-24,-17,-7
-139,984,191,-22,-16,-6
-134,982,197,-24,-14,-7
-128,966,184,-23,-14,-9
-136,983,184,-23,-13,-9
-128,988,188,-24,-14,-8
-133,990,177,-25,-13,-7
-125,982,188,-24,-10,-9
-140,968,179,-25,-12,-9
-133,979,191,-25,-12,-7
-135,988,182,-24,-10,-9
-125,990,166,-23,-10,-7
-125,982,182,-21,-13,-10
-134,989,197,-22,-10,-10
-133,979,189,-21,-12,-8
-134,976,184,-19,-12,-9
-139,989,178,-20,-15,-10
-139,982,184,-20,-14,-10
-142,982,185,-17,-13,-10
-133,977,184,-14,-13,-12
-148,989,171,-16,-11,-12
-144,977,166,-12,-12,-11
-144,982,184,-12,-14,-12
-133,987,200,-10,-14,-13
-148,988,180,-11,-13,-14
-152,977,168,-7,-14,-14
-145,983,191,-8,-16,-15
-157,988,186,-6,-16,-16
-144,993,189,-5,-17,-16
-142,982,179,-4,-16,-17
-142,974,178,-3,-17,-17
-135,979,182,-2,-18,-16
-141,985,191,-3,-17,-17
-147,976,173,-4,-18,-18
-144,974,185,-4,-17,-17
-141,982,191,-4,-18,-18
-140,973,180,-5,-16,-15
-140,984,184,-3,-14,-15
-145,976,177,-4,-14,-15
-133,977,195,-4,-12,-14
-141,985,173,-3,-12,-13
-144,982,173,-3,-12,-12
-144,982,169,-3,-12,-11
-128,979,179,-4,-11,-9
-142,982,174,-2,-12,-8
-148,984,171,-3,-12,-6
-136,977,172,-3,-13,-6
-144,978,166,-5,-11,-6
-135,979,174,-5,-12,-2
-142,971,163,-3,-10,-3
-147,977,168,-4,-10,-2
-145,982,174,-3,-8,-1
-147,990,172,-5,-10,-1
-152,977,177,-4,-6,1
-140,979,162,-1,-3,2
-151,988,171,-3,-4,1
-151,994,157,-3,-4,3
-141,983,162,-2,-3,1
-145,985,166,-3,-1,1
-134,987,168,-4,-2,1
-147,1002,177,-4,-2,2
-142,989,166,-6,-4,-1
-135,983,163,-3,-5,-256
-145,987,166,-6,-8,-2
-154,978,173,-7,-6,1
-142,985,169,-8,-6,-4
-147,988,174,-8,-11,-4
-152,987,173,-10,-12,-5
-148,995,166,-8,-11,-6
-151,1000,169,-8,-13,-5
-144,983,177,-9,-14,-4
-141,989,162,-6,-12,-2
-148,1002,172,-9,-13,-4
-151,983,160,-10,-12,-5
-148,1002,161,-11,-11,-2
-136,990,154,-10,-12,-3
-156,996,174,-10,-8,3
-140,989,150,-12,-5,0
-150,993,165,-13,-8,1
-148,993,177,-12,-4,3
-147,999,172,-14,-4,6
-142,1002,173,-15,-4,5
-147,993,165,-16,-3,7
-144,1007,157,-16,-3,10
-148,989,182,-18,-3,9
-147,994,178,-20,-2,11
-140,994,178,-21,-3,12
-141,989,173,-22,-6,14
-148,987,155,-25,-2,17
-139,982,152,-24,-1,19
-142,988,163,-26,-2,20
-133,988,169,-28,2,24
-122,985,156,-29,4,25
-125,989,152,-31,8,25
-130,985,162,-29,10,29
-134,983,166,-32,15,31
-133,995,172,-33,17,32
-121,998,140,-33,19,32
-123,993,169,-32,23,38
-136,993,156,-33,24,35
-141,995,148,-33,24,35
-129,987,157,-32,24,38
-133,985,154,-32,24,35
-134,998,171,-30,24,36
-141,993,163,-31,20,36
-152,985,154,-32,18,33
-140,1002,172,-30,14,31
-145,1000,163,-31,11,28
-144,1006,165,-29,6,25
-148,1000,157,-30,0,26
-144,996,166,-28,-4,19
-145,1004,163,-29,-9,17
-136,994,174,-30,-12,16
-152,989,163,-30,-15,13
-133,973,157,-29,-21,12
-135,987,154,-30,-23,11
-142,988,157,-29,-23,7
-144,990,148,-31,-23,7
-129,978,154,-30,-25,7
-128,993,154,-29,-21,6
-123,985,161,-31,-20,4
-127,984,154,-29,-18,5
-133,990,144,-30,-15,6
-145,989,154,-32,-13,5
-140,984,148,-32,-12,4
-135,985,154,-32,-6,3
-139,988,155,-30,-7,7
-136,978,162,-30,-3,6
-134,985,160,-31,-1,8
-139,979,157,-29,2,10
-141,989,154,-29,2,9
-152,982,157,-30,4,10
-157,994,168,-29,6,10
-135,984,161,-31,6,13
-128,976,165,-30,7,17
-152,988,157,-29,9,15
-142,977,165,-30,7,17
-140,985,171,-31,10,20
-135,985,169,-32,7,23
-133,978,173,-31,8,23
-140,973,180,-31,9,25
-148,979,184,-32,7,25
-148,987,189,-33,8,25
-125,982,179,-32,9,29
-141,987,189,-32,7,30
-141,977,186,-32,8,30
-148,976,179,-33,9,29
-133,978,188,-32,10,32
-142,973,182,-30,8,30
-144,989,165,-28,8,31
-156,987,186,-27,9,31
-150,973,179,-27,5,29
-162,971,172,-23,4,28
-150,984,178,-23,4,28
-148,982,185,-20,1,25
-162,983,189,-15,-2,24
-157,974,180,-13,-5,23
-150,994,173,-11,-7,22
-163,979,185,-8,-11,20
-148,987,179,-6,-13,15
-145,988,179,-3,-15,14
-148,998,173,-1,-19,14
-156,984,173,1,-22,12
-144,977,169,4,-26,11
-145,984,171,5,-26,11
-145,988,184,4,-33,10
-144,967,169,5,-29,9
-144,994,168,8,-32,11
-128,989,179,7,-34,10
-130,985,174,7,-30,10
-144,983,179,5,-32,12
-133,990,172,6,-32,12
-133,990,166,3,-31,13
-125,995,177,3,-27,14
-129,993,173,0,-25,15
-128,995,169,1,-23,16
-134,995,169,-1,-24,18
-135,982,157,-2,-23,17
-125,988,150,-3,-21,20
-123,984,162,-4,-19,22
-129,993,152,-3,-20,21
-128,983,163,-8,-19,21
-121,985,163,-8,-20,23
-141,1000,157,-7,-17,22
-133,994,161,-10,-15,22
-125,987,142,-11,-15,24
-129,1002,157,-10,-14,24
-127,990,149,-11,-12,23
-130,990,168,-10,-13,22
-130,988,165,-13,-11,23
-130,985,163,-14,-9,23
-123,995,148,-13,-8,23
-122,989,150,-14,-7,24
-121,990,139,-14,-5,25
-112,984,163,-14,-5,26
-117,989,171,-16,-4,23
-125,987,160,-16,-2,27
-122,985,155,-18,-3,26
-118,994,161,-18,-2,25
-121,987,145,-20,0,24
-115,996,163,-18,-1,25
-125,989,171,-20,0,26
-111,985,168,-20,-2,25
-125,1000,172,-20,-2,26
-117,994,154,-21,-5,24
-119,989,177,-25,-2,26
-121,993,163,-24,-2,24
-118,990,173,-24,-6,24
-119,988,155,-23,-6,23
-125,993,173,-22,-5,23
-121,990,157,-23,-7,21
-127,999,165,-24,-6,21
-127,999,172,-23,-8,21
-128,985,162,-22,-10,15
-121,996,171,-23,-13,18
-121,989,160,-22,-13,17
-119,1000,166,-22,-15,14
-104,990,174,-23,-15,10
-119,1002,166,-22,-15,12
-104,999,148,-23,-16,11
-127,994,163,-23,-14,8
-117,995,160,-25,-18,7
-110,990,163,-22,-17,7
-128,1000,182,-23,-16,7
-121,994,149,-24,-15,6
-121,1004,169,-22,-16,3
-113,999,169,-22,-12,5
-130,1006,166,-20,-14,3
-123,1007,168,-23,-14,2
-129,1005,163,-23,-15,2
-127,1005,150,-25,-16,2
-134,993,163,-23,-15,1
-129,993,166,-24,-16,1
-123,995,156,-24,-15,0
-129,996,152,-25,-15,-1
-127,989,160,-26,-18,-1
-123,996,156,-25,-15,1
-128,1007,166,-29,-15,-1
-129,1004,155,-28,-12,0
-139,999,171,-30,-10,0
-133,999,166,-31,-10,2
-130,1002,160,-33,-10,1
-122,1002,162,-32,-8,3
-136,1006,186,-33,-6,1
-122,995,166,-34,-6,5
-150,987,171,-39,-2,5
-133,998,165,-37,-3,7
-139,989,168,-38,-3,6
-134,1005,184,-40,-1,9
-129,982,168,-39,1,10
-147,988,165,-40,-1,11
-135,995,172,-42,1,9
-129,982,186,-41,3,10
-144,990,165,-42,1,12
-140,993,168,-44,3,13
-141,985,171,-43,3,14
-142,982,172,-42,2,12
-144,983,185,-42,1,14
-127,978,174,-44,1,15
-140,985,174,-42,0,14
-141,987,184,-42,1,16
-150,988,171,-40,1,18
-129,989,185,-39,1,17
-139,984,186,-37,1,17
-147,987,174,-37,3,19
-127,984,177,-35,1,18
-134,989,182,-33,3,22
-139,979,182,-33,1,19
-144,987,178,-31,3,21
-139,989,182,-30,4,20
-140,984,174,-30,2,19
-134,974,162,-28,5,20
-133,974,188,-27,4,20
-134,993,185,-26,4,20
-139,988,172,-25,4,21
-140,977,177,-24,1,22
-134,989,171,-22,-1,22
-140,993,172,-23,2,19
-136,995,177,-21,1,21
-139,989,180,-19,1,20
-141,985,182,-21,-2,19
-139,989,179,-18,-3,18
-139,996,171,-18,-5,19
-135,990,172,-19,-5,18
-133,993,180,-16,-6,17
-145,985,180,-18,-8,17
-136,977,172,-18,-11,16
-135,973,186,-17,-10,17
-140,989,185,-17,-12,14
-139,993,173,-18,-10,15
-128,988,195,-18,-8,14
-144,985,161,-18,-11,15
-125,988,173,-17,-8,15
-121,993,177,-17,-8,13
-125,982,173,-17,-4,11
-135,989,174,-17,-8,13
-123,995,168,-17,-8,12
-128,989,171,-18,-5,14
-117,987,165,-16,-7,11
-125,1004,168,-20,-4,12
-136,988,166,-17,-7,12
-140,984,171,-18,-6,12
-129,995,166,-18,-6,13
-123,990,180,-19,-7,13
-130,994,179,-17,-5,14
-121,989,172,-20,-6,14
-117,998,184,-21,-6,14
-136,987,196,-22,-4,14
-125,985,180,-25,-4,18
-106,990,186,-27,-3,17
-128,995,179,-24,0,16
-122,988,173,-25,0,18
-115,984,179,-25,2,18
-105,994,178,-27,5,20
-110,985,169,-27,6,19
-117,995,172,-24,9,20
-121,1000,191,-26,7,22
-104,988,178,-24,7,21
-112,988,174,-24,9,21
-125,990,172,-21,7,20
-118,994,185,-22,8,21
-117,990,180,-19,4,17
-118,998,179,-17,2,18
-117,998,168,-17,-1,15
-128,1004,179,-14,-3,13
-122,990,166,-15,-7,10
-129,1005,178,-12,-11,9
-119,989,171,-14,-12,8
-115,987,184,-11,-15,6
-118,998,168,-10,-17,4
-118,985,180,-8,-21,2
-117,988,182,-9,-22,0
-119,993,160,-10,-23,-1
-118,984,150,-6,-22,-3
-117,984,178,-9,-22,-4
-117,996,179,-8,-19,-4
-127,995,163,-9,-22,-6
-119,995,161,-10,-19,-6
-117,993,172,-10,-18,-7
-115,995,165,-10,-17,-5
-119,996,157,-12,-14,-8
-128,1004,168,-11,-13,-7
-121,1005,145,-11,-11,-8
-123,1005,156,-14,-11,-8
-123,999,172,-13,-10,-7
-134,999,165,-15,-8,-6
-121,996,144,-15,-8,-7
-128,1000,165,-16,-5,-7
-128,1002,165,-19,-6,-4
-122,996,180,-20,-6,-5
-133,999,169,-19,-4,-3
-125,995,171,-24,-4,-1
-128,995,185,-24,-4,-1
-118,998,184,-24,-4,-2
-117,1002,188,-28,-4,2
-125,994,162,-29,-5,3
-128,988,171,-29,-2,7
-118,993,157,-30,-2,7
-125,993,166,-30,-1,10
-117,985,154,-32,2,11
-121,978,150,-33,5,13
-134,989,160,-34,6,14
-111,994,169,-34,9,14
-128,999,166,-32,9,19
-106,998,168,-34,13,20
-125,990,165,-33,16,21
-117,1004,177,-31,14,22
-119,995,166,-33,17,22
-119,999,173,-30,18,20
-118,1000,155,-33,18,21
-113,998,186,-32,17,23
-127,999,177,-31,16,21
-127,999,169,-28,15,20
-134,988,162,-31,12,20
-112,996,156,-31,8,18
-127,994,163,-31,8,18
-123,999,168,-32,5,17
-122,1004,184,-31,0,14
-122,1002,179,-33,-2,11
-128,993,178,-33,-4,13
-123,995,177,-33,-6,10
-118,994,177,-35,-8,8
-122,990,160,-33,-11,8
-129,999,172,-35,-11,6
-129,989,173,-35,-12,6
-129,996,169,-34,-14,4
-115,983,163,-33,-15,3
-122,994,144,-35,-13,0
-122,995,156,-33,-16,1
-110,993,152,-33,-15,-2
-119,990,177,-33,-15,-2
-117,1006,150,-30,-14,-3
-111,994,162,-28,-13,-5
-121,994,163,-28,-14,-5
-110,994,165,-28,-14,-7
-122,990,148,-26,-13,-7
-135,999,150,-26,-14,-8
-119,996,171,-25,-16,-10
-117,999,166,-25,-13,-9
-129,996,163,-23,-12,-9
-113,990,165,-23,-13,-10
-130,995,172,-24,-11,-7
-125,993,163,-27,-12,-8
-110,993,155,-25,-8,-7
-122,994,162,-26,-10,-7
-121,996,174,-28,-9,-6
-117,988,178,-31,-6,-6
-123,990,184,-30,-1,-3
-127,996,177,-33,-5,-5
-123,1000,177,-34,-2,-1
-125,984,195,-36,-1,-1
-133,993,178,-37,-4,-2
-123,995,172,-38,-1,0
-128,983,194,-39,-1,1
-135,999,184,-42,-3,1
-133,999,186,-44,-5,1
-136,988,191,-42,-3,2
-128,989,188,-46,-4,4
-133,990,177,-45,-7,2
-130,987,192,-45,-8,3
-130,989,166,-45,-9,4
-127,987,189,-46,-10,3
-134,978,196,-46,-8,4
-128,989,177,-45,-10,3
-139,983,174,-44,-12,4
-134,990,168,-42,-10,3
-136,979,171,-42,-11,5
-135,995,161,-41,-12,1
-134,977,172,-39,-11,5
-135,988,173,-37,-10,5
-136,984,180,-34,-12,3
-123,995,184,-34,-13,4
-130,984,180,-34,-13,3
-140,996,202,-30,-14,3
-134,970,180,-28,-13,3
-125,990,192,-29,-15,1
-128,989,173,-25,-15,0
-127,994,192,-25,-12,0
-134,994,180,-22,-17,1
-127,993,196,-21,-17,0
-119,996,165,-21,-17,1
-117,989,169,-18,-15,2
-125,984,179,-16,-14,1
-140,984,174,-14,-14,1
-129,993,166,-13,-13,5
-125,984,173,-11,-13,0
-121,988,178,-10,-12,1
-121,990,180,-8,-12,2
-121,996,174,-8,-11,3
-119,988,166,-8,-12,2
-118,985,194,-8,-13,2
-134,996,162,-8,-13,3
-117,970,188,-10,-11,3
-118,988,174,-9,-12,4
-130,987,191,-10,-13,3
-123,988,178,-11,-14,2
-127,984,188,-12,-15,2
-111,982,174,-10,-15,0
-128,996,202,-11,-16,1
-127,989,178,-13,-18,2
-122,985,168,-13,-16,2
-127,994,177,-13,-15,1
-130,982,163,-15,-14,2
-119,993,184,-15,-13,-2
-127,985,173,-15,-15,0
-113,990,178,-13,-12,1
-123,976,168,-15,-16,1
-123,987,166,-13,-13,1
-125,990,184,-15,-13,1
-129,978,177,-12,-14,0
-123,996,169,-11,-12,2
-123,984,174,-14,-12,1
-129,990,174,-12,-11,2
-115,989,173,-13,-11,1
-123,988,172,-10,-10,2
-113,985,162,-10,-12,5
-115,985,172,-6,-12,1
-117,982,155,-6,-9,5
-118,984,171,-5,-10,3
-130,984,172,-5,-9,6
-107,983,168,-2,-9,6
-110,985,174,-5,-8,8
-118,987,169,-5,-6,6
-127,985,165,-1,-6,8
-113,994,178,-4,-6,10
-119,978,156,-2,-5,9
-113,988,150,-2,-6,10
-123,978,172,-256,-5,8
-122,983,171,-2,-7,9
-121,996,163,-256,-8,7
-123,989,162,0,-7,8
-119,1002,162,-3,-9,7
-122,994,157,-2,-8,5
-118,1016,169,-1,-12,3
-118,985,173,-4,-10,5
-123,999,160,-4,-13,1
-121,1005,168,-5,-15,2
-128,1004,177,-5,-16,-256
-122,994,171,-8,-18,-3
-129,994,172,-9,-20,-4
-123,995,174,-10,-21,-6
-125,1000,180,-12,-21,-8
-127,990,171,-15,-23,-9
-133,987,168,-15,-22,-11
-122,993,189,-18,-23,-12
-122,995,172,-18,-22,-10
-122,1005,169,-20,-23,-13
-119,995,174,-24,-24,-13
-117,1000,177,-25,-21,-13
-123,1002,174,-27,-18,-15
-125,998,180,-29,-21,-15
-113,1000,165,-30,-17,-14
-128,989,166,-31,-22,-15
-115,1004,182,-33,-19,-9
-125,998,184,-32,-19,-12
-119,988,169,-34,-19,-11
-113,995,179,-33,-19,-11
-127,994,179,-33,-19,-9
-118,999,173,-33,-20,-9
-125,994,162,-30,-18,-8
-123,1004,166,-32,-17,-7
-118,990,171,-32,-17,-4
-118,993,168,-29,-14,-5
-115,995,160,-28,-13,-4
-115,996,173,-25,-12,-1
-128,988,169,-24,-11,-1
-119,988,168,-22,-11,-1
-112,990,161,-21,-7,-1
-130,995,174,-20,-9,0
-122,998,163,-18,-8,2
-130,993,160,-16,-5,-1
-127,994,162,-13,-4,0
-125,989,180,-14,-5,2
-129,1000,173,-13,-3,1
-123,993,160,-13,-3,0
-123,988,165,-12,-2,1
-118,996,169,-12,-5,0
-129,999,178,-12,-3,1
-127,989,160,-13,-4,-1
-122,1005,168,-14,-4,-1
-129,990,186,-16,-5,-1
-135,1000,169,-16,-4,-3
-123,996,174,-18,-7,-4
-125,1000,157,-19,-9,-4
-140,998,163,-19,-9,-6
-127,989,178,-23,-11,-5
-135,995,180,-26,-13,-7
-129,995,173,-28,-12,-8
-136,994,162,-31,-15,-8
-128,999,180,-33,-17,-9
-136,995,180,-36,-16,-10
-121,999,178,-40,-17,-9
-130,982,182,-40,-18,-8
-139,1005,182,-43,-17,-10
-123,990,171,-45,-17,-11
-136,985,166,-48,-16,-10
-133,998,178,-48,-14,-8
-122,990,194,-50,-15,-6
-134,998,171,-51,-13,-8
-135,987,185,-50,-12,-8
-122,993,171,-50,-10,-5
-129,983,184,-50,-9,-5
-123,998,202,-48,-7,-4
-139,978,166,-49,-8,-2
-125,1000,180,-47,-7,1
-119,988,173,-48,-6,1
-113,983,169,-45,-8,0
-129,978,184,-43,-6,4
-122,987,173,-42,-4,7
-122,989,165,-38,0,7
-119,989,166,-35,-3,8
-139,989,166,-36,-256,10
-129,989,152,-34,2,11
-128,998,177,-30,4,12
-129,993,161,-27,4,15
-119,979,177,-26,4,14
-128,994,171,-26,5,14
-134,989,178,-24,3,15
-119,982,171,-23,2,15
-118,995,173,-21,5,16
-121,977,166,-19,-256,14
-115,990,182,-21,2,14
-128,989,189,-19,1,14
-123,983,169,-19,3,13
-111,984,180,-18,3,13
-122,993,171,-18,3,11
-118,979,184,-19,3,11
-133,982,178,-16,5,8
-125,996,186,-19,6,8
-127,977,182,-20,5,9
-134,987,169,-20,5,6
-105,979,186,-22,4,5
-119,976,171,-23,7,2
-105,984,189,-23,3,1
-122,983,171,-25,4,1
-128,973,173,-25,2,-1
-121,977,173,-23,-2,-1
-122,979,172,-26,-4,0
-119,993,189,-28,-3,0
-123,996,169,-27,-8,-5
-128,995,185,-27,-11,-5
-122,985,178,-28,-9,-7
-128,985,192,-27,-13,-5
-127,990,180,-28,-17,-6
-121,984,155,-29,-16,-7
-125,989,189,-29,-18,-8
-121,993,177,-29,-19,-8
-133,987,157,-29,-19,-10
-122,979,184,-28,-21,-9
-130,979,178,-27,-19,-8
-123,984,182,-28,-18,-10
-123,976,165,-28,-16,-8
-127,985,174,-26,-15,-8
-127,988,178,-26,-11,-9
-141,983,177,-28,-12,-9
-129,989,161,-25,-10,-6
-127,985,165,-26,-6,-6
-135,979,191,-24,-7,-6
-127,971,184,-27,-4,-4
-140,966,180,-24,-3,-5
-133,988,174,-24,-1,-4
-133,983,180,-24,-256,-1
-118,990,173,-23,255,-2
-123,979,200,-24,1,1
-123,983,194,-25,2,1
-128,998,180,-26,3,3
-125,994,182,-24,5,2
-135,988,173,-25,4,5
-130,989,184,-24,6,8
-128,990,172,-25,3,6
-134,987,194,-23,6,6
-133,989,168,-23,4,8
-127,985,179,-25,4,8
-129,989,189,-24,1,9
-127,995,180,-23,2,10
-127,989,185,-24,2,10
-139,990,192,-21,1,10
-139,987,168,-20,0,7
-127,985,172,-21,1,6
-121,993,169,-21,-1,7
-125,979,178,-19,-1,8
-135,987,160,-17,0,5
-121,984,174,-18,-2,5
-134,985,177,-17,-4,3
-130,988,182,-14,-5,4
-127,984,173,-16,-5,4
-141,987,160,-16,-7,2
-122,995,174,-14,-7,-1
-133,982,165,-13,-9,-3
-130,998,188,-11,-6,-3
-134,979,171,-14,-7,-3
-129,989,169,-10,-11,-4
-135,985,194,-10,-9,-5
-136,984,174,-12,-10,-6
-127,994,173,-11,-11,-6
-130,989,163,-13,-11,-6
-136,984,157,-12,-14,-8
-129,989,186,-12,-14,-7
-135,988,188,-15,-14,-6
-129,989,173,-14,-14,-5
-133,985,195,-18,-15,-5
-134,1002,185,-19,-14,-5
-134,1004,180,-19,-15,-5
-128,996,185,-22,-12,-4
-141,998,162,-21,-12,-3
-118,988,172,-20,-13,255
-135,984,155,-23,-11,0
-133,987,168,-24,-9,2
-133,988,173,-24,-11,1
-130,987,166,-25,-11,2
-129,995,174,-26,-7,3
-122,983,165,-27,-7,5
-128,984,174,-27,-6,6
-122,989,169,-25,-6,7
-122,994,178,-29,-3,9
-129,984,171,-28,-2,10
-133,979,179,-28,-1,10
-127,988,168,-26,255,10
-140,985,168,-26,-3,10
-136,983,171,-27,-1,13
-125,995,150,-24,-2,14
-125,983,177,-23,-1,13
-123,988,178,-26,-1,14
-127,993,171,-25,0,16
-129,987,184,-23,-1,16
-136,987,169,-22,1,14
-123,985,161,-23,-1,14
-115,978,168,-21,-1,16
-128,985,189,-23,2,16
-121,994,157,-22,-256,16
-125,984,169,-20,1,16
-134,982,169,-20,0,15
-123,985,165,-23,3,16
-125,982,180,-20,3,18
-119,990,185,-21,3,16
-122,989,179,-18,4,19
-112,978,178,-21,2,17
-115,982,177,-19,4,16
-121,987,162,-18,4,15
-119,988,185,-20,3,15
-128,998,173,-19,2,15
-127,977,184,-20,0,13
-118,977,180,-20,-2,14
-119,989,172,-21,-2,14
-119,989,182,-21,-4,13
-112,985,169,-22,-7,12
-135,985,179,-22,-5,10
-122,985,185,-22,-6,10
-119,987,189,-23,-9,9
-130,989,162,-23,-8,8
-140,990,186,-22,-11,7
-118,983,169,-24,-10,5
-111,995,173,-23,-12,4
-110,988,171,-23,-9,4
-136,978,184,-24,-12,5
-112,995,168,-23,-14,0
-118,989,177,-23,-12,3
-110,979,165,-22,-14,0
-119,983,168,-23,-15,-1
-119,989,182,-22,-13,-3
-121,999,178,-22,-13,-1
-121,990,171,-20,-15,-1
-121,994,162,-23,-14,0
-113,989,165,-19,-12,-2
-130,985,185,-22,-14,-2
-121,984,168,-20,-11,255
-115,994,177,-21,-10,-1
-127,1005,160,-21,-10,-1
-130,999,171,-21,-10,0
-118,996,172,-19,-9,-1
-123,990,163,-20,-7,-1
-121,999,177,-21,-7,0
-118,987,163,-21,-11,0
-129,988,168,-22,-8,1
-123,996,171,-22,-8,1
-121,998,165,-23,-9,2
-119,990,178,-23,-8,4
-139,1004,182,-25,-7,3
-123,1004,174,-24,-8,4
-118,1004,155,-25,-6,4
-122,1000,155,-25,-8,4
-130,995,165,-26,-7,5
-123,994,172,-26,-5,6
-111,1000,184,-25,-6,6
-119,985,160,-26,-5,5
-113,995,163,-27,-5,6
-118,1000,179,-27,-5,5
-125,993,171,-27,-5,7
-130,995,178,-28,-3,8
-117,1000,173,-25,-3,6
-113,996,161,-25,-2,7
-122,985,155,-27,-1,7
-115,999,171,-24,0,7
-119,987,178,-23,-1,8
-112,996,165,-24,-1,6
-130,994,169,-23,-1,5
-125,1000,179,-27,255,4
-129,993,166,-25,-256,6
-111,998,173,-27,-2,4
-133,985,168,-26,-4,2
-125,993,172,-27,-4,3
-129,996,161,-28,-5,2
-119,993,180,-28,-8,0
-127,999,186,-32,-7,0
-117,998,177,-30,-9,-1
-128,1006,173,-31,-14,-2
-133,999,173,-33,-14,-3
-122,978,165,-35,-15,-3
-133,989,179,-32,-17,-4
-119,985,179,-38,-14,-4
-129,995,172,-37,-13,-4
-129,978,179,-37,-11,-4
-119,994,172,-37,-10,-5
-118,977,178,-39,-7,-5
-128,988,171,-36,-8,-5
-128,988,171,-36,-4,-5
-125,988,174,-38,-5,-4
-122,995,168,-37,-3,-4
-118,985,182,-37,-3,-5
-119,993,200,-37,-4,-3
-133,987,180,-36,-5,-3
-122,987,182,-37,-6,-4
-121,987,192,-36,-8,-3
-119,994,186,-37,-8,0
-118,993,185,-38,-9,-3
-118,989,191,-37,-10,-3
-122,985,188,-36,-9,2
-115,989,189,-36,-8,-1
-129,987,174,-35,-7,3
-111,994,180,-35,-6,3
-118,987,184,-33,-4,4
-111,987,185,-34,-2,4
-118,976,182,-33,-2,2
-123,995,182,-31,-1,3
-117,979,188,-31,2,3
-122,983,186,-32,2,4
-130,1002,166,-29,-1,3
-115,984,192,-27,2,1
-121,988,195,-27,-256,0
-127,988,192,-24,-4,0
-133,990,174,-24,-4,-1
-128,982,173,-24,-6,-4
-113,985,185,-24,-6,-3
-128,993,169,-22,-6,-5
-121,982,171,-19,-9,-5
-122,988,185,-21,-8,-5
-121,984,184,-17,-6,-7
-115,989,191,-19,-9,-7
-113,968,182,-18,-8,-8
-129,985,171,-16,-10,-10
-115,982,191,-18,-7,-11
-135,977,178,-16,-8,-10
-121,973,184,-19,-9,-13
-119,970,192,-18,-10,-11
-121,977,182,-18,-9,-13
-122,976,184,-17,-10,-12
-122,983,185,-17,-11,-14
-125,977,179,-16,-10,-15
-122,978,201,-18,-13,-14
-133,988,184,-17,-13,-14
-130,979,200,-16,-10,-15
-123,988,182,-16,-14,-14
-125,990,178,-19,-15,-17
-129,983,189,-19,-15,-16
-127,987,189,-20,-18,-14
-119,979,188,-20,-16,-16
-128,988,196,-20,-19,-14
-112,987,209,-20,-19,-14
-134,987,205,-21,-20,-14
-123,979,201,-22,-21,-14
-128,979,192,-22,-19,-13
-123,978,189,-22,-18,-13
-133,982,191,-22,-18,-11
-125,979,185,-20,-16,-11
-128,984,184,-20,-15,-8
-125,987,174,-18,-13,-8
-130,982,186,-18,-10,-6
-136,971,184,-16,-9,-5
-125,988,163,-14,-8,-7
-119,990,192,-12,-7,-4
-125,983,169,-11,-4,-2
-123,990,177,-8,-4,-2
-129,987,173,-8,-3,-1
-112,993,179,-5,0,-1
-119,983,194,-4,0,-2
-123,984,180,255,1,0
-118,989,172,-256,1,255
-118,993,165,1,1,-256
-128,998,174,-1,2,1
-119,990,178,2,-1,0
-128,989,171,2,0,0
-119,982,171,2,0,0
-133,989,166,1,2,-1
-136,988,184,1,-2,1
-118,979,165,0,-2,-2
-121,988,165,-1,-1,-3
-129,988,186,-3,-1,0
-130,998,179,-1,-3,-5
-140,988,188,-4,-4,-5
-127,990,173,-6,-8,-5
-139,994,184,-9,-9,-5
-121,985,185,-9,-11,-7
-125,990,173,-10,-13,-8
-142,988,184,-12,-15,-10
-127,979,180,-14,-16,-11
-133,999,186,-15,-17,-13
-133,996,178,-16,-22,-13
-136,998,168,-18,-21,-14
-122,983,161,-19,-22,-15
-133,998,169,-19,-24,-16
-144,995,161,-18,-23,-17
-118,987,177,-20,-24,-18
-135,994,169,-19,-25,-19
-118,998,161,-19,-23,-20
-130,987,169,-17,-24,-22
-130,998,160,-18,-23,-19
-133,995,154,-19,-22,-20
-133,984,154,-19,-20,-19
-136,994,165,-18,-19,-18
-122,1004,160,-21,-18,-16
-134,1005,177,-17,-16,-17
-134,999,162,-20,-14,-16
-128,993,165,-21,-13,-14
-128,1006,169,-20,-10,-11
-127,1004,154,-19,-10,-11
-125,999,169,-20,-9,-10
-133,1004,166,-20,-6,-8
-128,994,168,-20,-6,-6
-125,999,165,-23,-3,-2
-140,1007,171,-22,-2,0
-142,1009,163,-23,-1,1
-127,1006,174,-25,-2,4
-130,999,169,-24,0,6
-127,987,171,-27,0,7
-129,995,161,-27,0,7
-133,987,171,-29,0,10
-127,988,179,-28,2,13
-130,995,177,-30,255,13
-139,995,177,-29,1,14
-128,984,149,-33,2,15
-134,979,169,-32,2,14
-136,1005,177,-31,1,15
-127,989,171,-32,3,15
-133,999,162,-33,3,16
-128,988,180,-33,0,13
-128,994,184,-33,3,13
-129,1002,177,-31,5,12
-130,985,174,-32,1,11
-133,995,171,-33,1,10
-140,995,168,-31,3,10
-133,1005,174,-32,0,9
-141,999,173,-31,1,7
-119,993,178,-33,0,4
-122,985,169,-31,-2,3
-133,989,169,-34,-2,3
-128,982,182,-33,-3,1
-127,994,168,-32,-3,0
-122,977,166,-33,-6,-1
-121,988,174,-32,-3,-3
-130,983,168,-33,-3,-2
-136,989,177,-32,-6,-2
-128,990,194,-34,-6,-4
-125,989,180,-33,-8,-4
-127,1000,163,-34,-5,-5
-130,987,157,-33,-8,-5
-130,976,168,-35,-6,-4
-121,983,180,-34,-5,-5
-125,994,194,-36,-5,-6
-122,984,171,-36,-7,-2
-121,987,177,-34,-6,-5
-128,984,172,-36,-5,-3
-107,983,185,-35,-5,-4
-117,978,189,-35,-6,-4
-123,988,182,-33,-6,-5
-115,984,177,-34,-4,-5
-117,990,185,-35,-6,-6
-133,989,179,-35,-4,-4
-134,983,172,-34,-5,-3
-129,987,195,-32,-2,-6
-128,994,192,-33,-3,-4
-133,976,191,-33,-6,-4
-128,978,192,-32,-5,-3
-125,984,180,-32,-4,-2
-129,983,196,-31,-5,-5
-121,970,189,-34,-4,-5
-122,976,200,-33,-4,-3
-127,982,202,-31,-4,-2
-127,983,196,-31,-2,-3
-115,967,177,-32,-3,-1
-125,985,182,-30,-2,-2
-125,974,185,-29,-3,-1
-135,984,202,-27,0,-2
-119,978,178,-25,-2,-1
-111,994,186,-24,-2,1
-133,987,188,-23,-1,-1
-123,976,174,-20,-2,1
-125,987,194,-19,-4,-1
-128,987,179,-18,-3,-1
-128,984,188,-14,-4,-1
-128,979,172,-14,-8,-2
-111,978,177,-13,-5,-3
-128,988,184,-14,-9,-4
-130,974,179,-10,-10,-4
-128,979,177,-11,-10,-5
-129,970,184,-10,-11,-5
-129,977,182,-9,-9,-5
-139,987,179,-7,-10,-4
-129,973,186,-6,-9,-6
-121,983,178,-3,-10,-5
-118,977,177,-5,-6,-6
-122,985,178,-3,-5,-6
-139,966,169,-4,-1,-5
-140,984,168,-3,-1,-7
-125,978,166,-4,-2,-5
-133,984,185,-4,-1,-6
-129,985,174,-1,2,-5
-139,976,171,-3,-1,-6
-123,983,195,-3,-1,-5
-141,979,182,-1,-4,-5
-129,985,186,-3,-3,-5
-144,978,184,-5,-8,-5
-123,987,195,-8,-9,-6
-122,990,191,-8,-11,-6
-121,988,184,-9,-15,-6
-127,982,179,-9,-13,-2
-134,979,178,-11,-13,-4
-125,982,174,-9,-15,-1
-127,973,179,-9,-14,-3
-129,973,169,-9,-11,-2
-119,979,160,-10,-11,0
-113,978,145,-10,-11,2
-118,977,146,-7,-8,255
-136,994,154,-7,-6,0
-127,988,161,-7,-5,-256
-129,982,161,-8,-1,-1
-133,988,168,-7,0,-1
-122,982,150,-6,-1,-1
-136,984,157,-8,0,-1
-123,983,172,-8,-256,-2
-133,984,162,-9,-2,-2
-140,983,172,-9,-1,-3
-142,998,172,-12,-2,-3
-135,987,162,-13,-5,-5
-130,988,185,-12,-5,-5
-140,990,174,-14,-6,-6
-133,995,174,-14,-7,-5
-127,999,162,-18,-8,-4
-125,993,169,-19,-9,-3
-135,984,171,-20,-12,-2
-134,984,150,-20,-9,0
-142,987,168,-24,-9,-1
-123,985,173,-23,-10,0
-130,989,191,-25,-7,2
-122,990,165,-26,-7,5
-134,987,180,-26,-6,4
-129,987,161,-26,-5,6
-119,979,177,-26,-3,9
-130,984,157,-28,-1,11
-127,987,150,-23,1,10
-130,990,149,-24,2,11
-128,990,148,-22,3,15
-133,1002,161,-22,2,16
-121,999,161,-20,3,14
-140,1005,146,-19,3,14
-121,996,162,-19,3,14
-127,995,171,-18,3,15
-150,1000,168,-14,-2,14
-141,990,177,-17,2,13
-136,998,173,-16,-1,13
-130,994,179,-17,-4,14
-135,990,163,-16,-5,11
-123,988,157,-17,-5,11
-129,996,171,-17,-4,9
-121,987,166,-17,-7,11
-118,996,180,-16,-6,10
-127,985,168,-17,-6,9
-128,994,156,-19,-8,6
-127,987,165,-20,-6,7
-117,987,179,-18,-5,8
-135,989,174,-20,-4,5
-135,978,166,-20,-6,6
-142,988,169,-22,-6,5
-129,988,166,-22,-5,3
-123,990,173,-23,-6,5
-123,988,169,-24,-5,2
-130,994,180,-24,-7,3
-129,990,178,-26,-6,1
-122,988,178,-24,-9,3
-133,1000,178,-25,-9,3
-129,998,169,-27,-9,0
-140,1000,169,-25,-9,1
-141,987,196,-29,-9,2
-127,994,173,-26,-8,1
-130,985,178,-24,-7,2
-129,983,180,-27,-10,4
-128,995,160,-25,-7,3
-125,978,174,-26,-8,3
-128,984,174,-26,-5,5
-136,984,172,-27,-8,5
-135,993,180,-26,-5,5
-127,994,178,-26,-6,5
-135,987,184,-29,-4,6
-128,993,189,-26,-2,7
-133,984,166,-28,-3,11
-130,996,185,-30,-1,8
-129,984,178,-28,-256,8
-127,987,185,-30,-3,8
-122,984,186,-29,-3,12
-130,985,186,-28,-1,10
-134,987,189,-28,-3,11
-127,983,179,-27,-3,11
-128,990,182,-26,-3,11
-127,983,174,-26,-3,11
-129,982,165,-24,-6,14
-128,979,188,-23,-5,11
-121,989,174,-23,-6,8
-135,982,174,-19,-6,11
-122,985,180,-19,-5,10
-134,977,195,-19,-5,9
-122,988,174,-18,-6,7
-121,984,179,-15,-7,7
-136,983,184,-16,-8,5
-129,987,184,-14,-10,5
-133,996,191,-12,-13,5
-117,996,182,-14,-13,3
-140,982,185,-11,-11,4
-121,1005,185,-12,-12,1
-125,989,196,-8,-13,2
-123,983,168,-9,-15,-1
-127,989,178,-8,-13,2
-123,994,172,-7,-14,0
-123,987,169,-6,-13,0
-130,993,172,-5,-12,0
-118,988,185,-4,-13,-1
-119,982,166,-6,-12,-1
-130,984,165,-5,-10,-3
-129,993,169,-4,-9,0
-125,974,169,-5,-8,-256
-122,983,178,-5,-7,-1
-127,978,182,-5,-6,-2
-125,983,182,-6,-6,0
-119,979,173,-5,-3,0
-128,989,180,-5,-1,3
-122,982,177,-4,-2,0
-119,988,172,-5,1,1
-115,978,182,-4,2,4
-133,984,169,-7,0,1
-112,985,186,-7,1,0
-121,979,179,-7,1,1
-117,996,180,-6,0,2
-127,977,186,-6,-2,3
-128,995,179,-8,1,2
-130,994,180,-7,-2,2
-134,984,180,-9,-1,0
-135,989,166,-8,-4,0
-125,998,168,-11,-2,-1
-125,977,191,-9,-4,-2
-115,990,177,-10,-4,-3
-134,985,185,-10,-5,-4
-123,982,189,-10,-5,-4
-129,988,180,-9,-6,-6
-128,989,171,-9,-8,-7
-139,983,173,-7,-6,-7
-134,998,173,-7,-11,-10
-141,996,172,-4,-8,-10
-130,984,182,-3,-9,-12
-141,982,184,-4,-9,-12
-125,984,194,-2,-14,-16
-133,988,169,-1,-13,-15
-140,982,172,-1,-15,-16
-142,977,180,-1,-17,-18
-130,990,174,0,-18,-17
-115,982,184,1,-17,-19
-139,989,166,2,-22,-16
-134,976,174,3,-20,-17
-127,994,144,5,-16,-17
-129,995,161,4,-18,-16
-122,988,169,5,-17,-15
-129,987,180,4,-15,-14
-141,989,178,7,-12,-14
-127,1000,172,6,-10,-13
-119,978,163,2,-8,-11
-130,979,171,4,-5,-10
-119,984,182,4,-5,-9
-125,989,185,3,1,-8
-127,987,178,2,3,-4
-121,1004,168,2,5,-6
-118,989,163,1,7,-2
-119,990,168,2,11,-2
-115,994,179,-1,12,0
-113,985,185,-2,15,2
-110,990,166,-3,19,2
-118,994,168,-1,19,2
-127,994,177,-4,23,3
-123,989,177,-4,25,4
-118,998,179,-7,26,4
-111,995,178,-7,25,6
-127,988,177,-8,28,4
-119,988,182,-7,27,4
-122,990,184,-8,25,3
-121,1011,197,-10,24,3
-110,999,182,-10,22,1
-118,985,174,-9,18,-1
-121,1004,177,-8,18,-3
-118,998,189,-9,15,-5
-112,999,188,-9,10,-6
-125,1005,180,-7,9,-9
-122,988,185,-7,3,-13
-128,1000,178,-10,-1,-14
-125,985,185,-6,-5,-20
-122,1000,185,-4,-8,-23
-135,989,184,-2,-13,-27
-127,994,182,-4,-14,-30
-123,988,171,1,-18,-33
-133,988,171,1,-18,-36
-130,998,178,4,-20,-38
-136,995,192,6,-25,-42
-115,995,174,9,-29,-41
-129,989,171,9,-31,-45
-123,1000,171,11,-33,-49
-110,994,177,13,-36,-52
-134,1002,182,16,-37,-55
-125,988,178,16,-40,-57
-119,982,160,18,-40,-57
-129,993,177,17,-40,-58
-127,984,166,18,-42,-57
-140,979,172,20,-40,-57
-142,988,161,20,-39,-58
-135,993,161,23,-39,-57
-134,987,161,21,-39,-58
-130,989,168,24,-37,-55
-130,1006,156,22,-35,-54
-134,984,149,22,-33,-52
-123,993,163,24,-33,-51
-135,994,146,23,-33,-51
-129,993,154,22,-30,-46
-139,995,154,21,-28,-46
-133,990,163,18,-25,-42
-129,984,173,20,-24,-43
-121,987,162,17,-22,-40
-135,987,163,15,-19,-38
-140,988,172,14,-19,-36
-139,989,169,14,-17,-35
-142,993,157,10,-14,-35
-135,990,160,9,-13,-30
-147,1002,152,8,-13,-31
-144,993,152,2,-12,-30
-136,998,163,5,-11,-29
-136,1005,165,1,-10,-28
-141,984,162,0,-7,-29
-145,995,157,-3,-10,-26
-147,996,148,-8,-8,-27
-150,988,154,-7,-5,-25
-151,987,160,-8,-7,-24
-151,993,166,-10,-6,-26
-151,989,157,-11,-7,-25
-150,996,169,-12,-5,-23
-156,988,166,-14,-10,-24
-150,983,154,-14,-9,-23
-158,998,160,-16,-13,-24
-152,990,177,-19,-14,-23
-145,995,174,-19,-16,-22
-154,989,165,-19,-16,-22
-152,993,150,-19,-19,-21
-156,1000,161,-22,-21,-21
-157,993,178,-20,-23,-21
-148,998,173,-21,-24,-19
-150,985,162,-23,-25,-20
-171,999,173,-24,-25,-21
-144,999,152,-21,-24,-20
-148,998,156,-21,-25,-19
-162,1015,173,-21,-24,-17
-152,985,156,-19,-24,-20
-150,996,157,-19,-23,-17
-148,996,161,-19,-23,-20
-152,987,166,-18,-21,-19
-157,1000,138,-15,-21,-17
-157,1000,155,-14,-20,-17
-156,984,169,-12,-17,-16
-164,999,168,-15,-18,-18
-157,993,157,-11,-17,-15
-156,995,156,-11,-18,-15
-162,985,154,-10,-17,-13
-156,995,156,-9,-18,-11
-147,1000,160,-10,-16,-13
-140,987,150,-7,-16,-10
-151,989,154,-8,-17,-10
-150,978,168,-9,-15,-9
-150,993,163,-9,-18,-8
-144,994,156,-9,-16,-6
-145,988,142,-11,-14,-4
-147,998,142,-12,-15,-6
-152,989,155,-12,-14,-3
-150,988,162,-15,-12,-2
-156,995,142,-15,-12,-3
-162,988,165,-17,-10,-2
-164,990,156,-20,-9,0
-156,995,156,-21,-11,2
-154,995,163,-22,-9,2
-148,984,166,-23,-7,1
-148,999,162,-25,-9,1
-162,985,146,-30,-7,4
-145,987,162,-28,-7,3
-148,993,168,-32,-7,3
-136,990,174,-34,-4,7
-162,979,165,-38,-2,5
-128,982,172,-37,-1,9
-142,982,182,-37,2,8
-141,978,172,-38,3,10
-134,994,171,-37,6,9
-134,979,166,-40,10,11
-134,988,161,-39,10,15
-147,989,172,-41,7,14
-136,989,179,-39,9,16
-135,982,166,-37,8,15
-130,982,179,-36,9,15
-136,974,174,-36,7,15
-130,973,174,-34,5,15
-130,982,177,-34,4,16
-123,979,185,-31,7,12
-134,970,168,-30,6,14
-142,974,169,-28,6,12
-128,976,169,-27,4,12
-117,976,180,-22,5,9
-140,976,172,-23,1,8
-136,979,178,-20,2,7
-136,985,165,-19,-2,3
-129,993,177,-18,-6,2
-141,984,166,-15,-8,-1
-133,985,177,-15,-12,-4
-150,983,188,-16,-13,-6
-141,982,180,-13,-19,-8
-136,979,173,-12,-21,-12
-141,988,177,-10,-25,-14
-154,982,180,-13,-29,-17
-136,985,179,-14,-29,-18
-133,987,191,-12,-34,-20
-140,984,165,-10,-36,-23
-145,978,155,-10,-37,-21
-128,987,162,-10,-34,-22
-136,983,163,-11,-35,-25
-135,974,178,-10,-34,-23
-128,987,154,-8,-29,-24
-133,988,165,-10,-29,-23
-129,978,149,-9,-24,-21
-128,978,142,-8,-21,-20
-134,988,154,-9,-21,-19
-130,977,145,-9,-16,-19
-141,987,150,-10,-13,-16
-133,979,160,-10,-9,-14
-157,978,155,-10,-5,-12
-144,974,149,-12,-7,-11
-140,982,152,-14,-6,-7
-147,982,156,-15,-4,-5
-144,963,171,-17,-5,-5
-133,976,154,-17,-3,0
-140,976,157,-19,-4,2
-134,983,156,-22,-1,7
-136,971,179,-24,0,10
-142,978,161,-26,3,13
-144,968,177,-28,3,16
-136,965,172,-30,6,19
-147,970,166,-30,9,21
-140,959,169,-33,15,24
-129,957,169,-36,17,28
-145,965,137,-35,18,32
-133,960,160,-37,22,33
-150,963,173,-35,25,35
-136,970,169,-34,25,35
-145,968,156,-35,27,36
-142,959,168,-33,27,37
-152,968,169,-31,27,36
-152,967,157,-31,24,36
-156,974,156,-27,23,33
-145,966,168,-26,21,34
-150,974,171,-22,17,32
-150,973,156,-22,12,29
-152,973,156,-20,5,26
-151,983,166,-15,4,24
-163,976,169,-15,-4,22
-151,973,162,-10,-7,19
-162,973,161,-10,-9,19
-154,979,156,-5,-14,16
-152,966,172,-6,-16,16
-144,979,179,-2,-20,10
-141,977,156,-3,-24,10
-150,966,165,0,-24,8
-134,961,166,0,-26,5
-157,978,180,0,-26,4
-147,978,166,6,-25,6
-145,968,156,5,-28,5
-140,971,161,5,-27,4
-142,982,165,6,-27,4
-144,982,165,8,-26,3
-159,973,163,5,-27,5
-148,989,149,8,-29,5
-147,985,179,5,-27,6
-157,982,156,9,-27,5
-154,982,177,6,-27,8
-148,993,163,5,-25,9
-144,977,160,6,-26,9
-148,984,140,5,-25,12
-145,985,146,6,-23,13
-150,976,156,3,-21,15
-162,984,149,1,-21,17
-139,973,154,1,-19,19
-136,976,154,-3,-17,21
-141,976,169,-4,-15,22
-147,985,163,-6,-10,29
-140,978,155,-10,-4,28
-140,985,169,-13,255,31
-147,985,156,-17,2,32
-148,985,169,-21,6,35
-133,979,166,-25,12,36
-127,994,184,-29,14,38
-142,987,178,-33,16,39
-139,984,192,-35,19,42
-139,984,177,-35,18,44
-145,990,185,-40,22,45
-145,989,186,-41,24,46
-142,1006,166,-41,23,43
-141,996,178,-43,25,46
-142,993,179,-43,25,44
-142,998,186,-44,26,44
-145,999,178,-41,25,46
-129,996,168,-41,22,47
-133,993,163,-38,22,43
-133,996,180,-36,19,45
-139,985,174,-32,16,43
-136,985,169,-27,16,43
-133,994,161,-26,16,42
-134,998,165,-20,13,41
-130,985,173,-16,7,38
-130,993,169,-8,10,39
-123,994,172,-8,10,36
-135,1002,182,-2,10,35
-130,993,177,4,13,33
-133,1000,161,10,10,34
-129,994,162,13,12,33
-129,998,169,18,11,31
-112,994,160,20,10,29
-129,995,173,26,5,30
-123,998,186,29,4,27
-134,1011,196,34,4,28
-123,1009,186,35,1,27
-122,1002,172,35,1,26
-130,1013,197,37,1,24
-118,1013,194,39,-256,24
-113,1015,179,40,-3,22
-127,1017,188,40,-5,22
-125,1013,182,41,-4,18
-115,1012,184,42,-8,19
-118,776,186,41,-12,15
-112,1012,174,42,-15,16
-115,1267,184,40,-16,14
-130,1015,180,39,-19,12
-118,1007,180,38,-22,12
-125,1015,174,38,-25,10
-106,1015,178,36,-28,8
-111,1013,177,37,-25,8
-112,1006,162,37,-28,6
-119,998,185,30,-27,5
-106,1004,152,33,-28,2
-121,1013,161,30,-30,2
-106,1007,163,29,-29,-1
-121,1005,152,28,-28,-1
-122,1023,154,30,-28,-2
-125,1015,145,25,-28,-6
-119,1018,134,26,-27,-5
-117,1011,137,26,-27,-8
-107,1021,160,23,-26,-10
-112,1016,139,21,-25,-12
-121,768,155,21,-23,-15
-113,1278,155,21,-26,-14
-129,1011,142,18,-24,-18
-123,1023,146,18,-26,-17
-112,1023,150,16,-24,-21
-118,1018,142,11,-24,-20
-113,1024,171,12,-21,-23
-115,1018,154,11,-23,-21
-117,1021,166,7,-21,-22
-111,1024,160,5,-17,-24
-118,1274,162,4,-15,-25
-106,1274,160,3,-14,-26
-115,1021,172,-1,-10,-23
-104,1015,154,-3,-9,-22
-117,1018,154,-3,-7,-24
-118,1012,149,-5,-5,-24
-99,1012,156,-5,-2,-22
-110,1009,163,-6,255,-21
-118,1018,168,-8,0,-21
-105,1015,148,-8,0,-22
-113,1022,155,-7,4,-21
-122,1000,138,-6,4,-22
-121,1007,169,-8,1,-20
-130,1028,156,-5,1,-23
-133,1278,154,-4,0,-24
-117,1027,150,-3,-2,-24
-121,1029,152,-3,-5,-24
-128,1018,137,0,-7,-29
-135,1011,139,1,-7,-28
-139,1022,132,2,-11,-31
-141,1016,155,4,-13,-32
-133,1022,150,6,-18,-35
-135,1016,139,8,-21,-37
-151,1022,140,11,-22,-40
-135,1007,152,8,-25,-42
-140,1018,149,8,-27,-44
-144,1277,142,9,-31,-46
-144,1016,138,10,-31,-49
-145,1026,125,12,-34,-50
-145,1021,138,10,-34,-52
-148,1026,145,14,-36,-54
-147,1032,138,10,-36,-56
-145,771,132,10,-35,-56
-152,1013,137,10,-35,-57
-152,1021,131,9,-35,-59
-163,1009,134,8,-33,-58
-154,1015,117,7,-35,-61
-159,1012,125,6,-33,-57
-148,1011,131,4,-32,-58
-150,1011,133,3,-29,-58
-154,1012,137,-1,-29,-56
-152,1017,122,0,-24,-55
-163,1002,150,-3,-25,-51
-144,1012,128,-3,-23,-50
-169,1007,152,-5,-18,-46
-158,1009,146,-9,-16,-45
-147,1016,146,-12,-12,-43
-136,1009,144,-14,-10,-36
-151,1002,155,-17,-7,-35
-144,995,138,-19,-4,-32
-147,1011,156,-21,-2,-29
-152,1011,149,-24,-2,-25
-165,999,144,-26,0,-22
-165,996,152,-26,2,-18
-154,1006,149,-27,5,-15
-150,993,154,-28,6,-16
-152,1000,150,-30,8,-13
-158,1007,149,-33,6,-10
-150,1004,131,-31,7,-9
-157,1004,148,-29,9,-6
-142,1000,149,-29,12,-4
-152,1004,140,-30,12,-4
-145,1005,146,-29,12,-5
-145,989,134,-29,10,-2
-158,1000,148,-26,9,-2
-159,996,144,-25,7,1
-152,1002,156,-25,6,-1
-151,998,150,-23,5,-1
-154,995,150,-23,-1,-3
-164,1005,139,-20,-256,-3
-158,999,155,-18,-3,-3
-156,990,149,-16,-3,-4
-152,990,139,-16,-6,-6
-144,998,125,-14,-10,-7
-152,987,142,-13,-12,-8
-147,995,137,-11,-14,-10
-148,1000,137,-11,-15,-11
-142,998,132,-10,-19,-13
-144,999,134,-7,-21,-16
-144,1002,128,-7,-22,-14
-140,996,121,-8,-25,-19
-133,990,117,-8,-24,-17
-148,988,122,-9,-27,-20
-144,989,131,-7,-28,-22
-148,989,145,-9,-30,-22
-142,984,129,-10,-29,-20
-127,979,128,-10,-29,-24
-135,985,131,-11,-31,-23
-142,989,122,-12,-27,-22
-151,983,121,-12,-28,-25
-142,994,112,-14,-27,-25
-139,993,125,-18,-23,-23
-142,979,112,-18,-24,-25
-136,982,120,-20,-23,-24
-129,977,134,-22,-20,-21
-139,993,117,-25,-24,-20
-136,978,128,-26,-22,-22
-141,970,138,-29,-20,-20
-145,979,138,-31,-21,-20
-134,982,125,-33,-19,-20
-144,978,131,-34,-17,-17
-141,976,125,-36,-18,-16
-128,985,139,-38,-15,-16
-141,987,134,-42,-15,-14
-140,976,121,-44,-15,-12
-136,987,132,-45,-15,-11
-139,970,133,-46,-12,-10
-144,968,146,-49,-11,-8
-129,967,139,-50,-7,-5
-140,971,140,-50,-6,-4
-136,967,140,-53,-5,-3
-130,974,137,-55,0,-1
-123,971,142,-53,-1,0
-134,971,160,-54,3,3
-142,968,146,-57,3,5
-130,967,150,-56,3,4
-130,973,144,-58,6,7
-142,968,145,-56,8,7
-128,971,146,-57,6,7
-140,973,154,-55,5,8
-144,971,161,-53,6,10
-139,968,149,-53,6,10
-127,976,178,-51,4,11
-136,966,168,-48,4,12
-129,965,161,-46,2,11
-134,959,163,-45,-1,10
-144,945,163,-41,-3,9
-130,963,162,-42,-1,7
-140,955,165,-38,-3,7
-128,963,184,-37,-2,7
-129,966,166,-35,-2,4
-144,956,162,-31,-6,4
-135,949,154,-30,-4,4
-135,948,168,-28,-2,5
-139,948,171,-26,-7,2
-139,959,178,-24,-6,0
-139,950,154,-21,-6,-256
-135,959,165,-19,-7,-2
-142,951,166,-18,-8,-2
-134,955,173,-18,-9,-2
-144,951,168,-15,-7,-1
-128,956,169,-13,-10,-4
-148,946,178,-13,-11,-4
-130,955,165,-12,-10,-2
-136,961,168,-12,-13,-3
-141,946,178,-11,-15,-2
-135,971,180,-11,-15,-1
-141,955,174,-10,-15,-2
-142,950,168,-10,-17,0
-135,965,180,-9,-17,2
-147,955,185,-10,-18,3
-139,959,182,-8,-19,2
-141,966,178,-10,-20,3
-148,951,171,-6,-18,4
-142,960,172,-9,-19,6
-145,960,157,-8,-18,8
-147,967,157,-7,-16,8
-139,959,161,-5,-13,9
-133,960,166,-5,-14,10
-140,977,179,-2,-11,12
-130,951,154,-1,-9,13
-145,966,166,0,-8,14
-145,963,150,1,-7,15
-135,961,165,3,-5,17
-140,963,171,5,-3,15
-142,960,145,6,-1,20
-144,959,149,7,0,19
-135,965,146,8,3,19
-133,978,146,11,3,21
-141,959,138,12,6,24
-148,983,142,13,7,19
-135,968,156,16,8,23
-140,983,162,16,9,23
-142,966,139,16,9,22
-151,977,152,16,7,25
-154,973,144,18,7,26
-140,968,150,17,5,25
-145,956,146,20,5,26
-140,961,149,22,4,26
-156,982,142,19,2,26
-134,979,125,18,1,26
-139,974,148,20,-1,27
-134,979,140,20,-1,24
-144,982,133,20,-1,25
-144,974,149,20,-5,25
-135,983,133,20,-5,27
-150,977,120,18,-8,25
-150,989,139,22,-8,24
-141,976,115,19,-10,23
-141,974,132,18,-11,22
-141,982,123,17,-13,21
-142,973,125,21,-15,20
-145,974,109,21,-15,18
-134,995,108,19,-15,17
-139,983,116,19,-17,16
-144,987,114,21,-16,14
-145,987,117,20,-13,14
-145,979,112,19,-12,11
-154,996,123,21,-13,10
-151,987,132,21,-13,10
-147,990,115,18,-11,8
-152,985,134,19,-13,7
-157,996,133,17,-13,4
-150,988,126,18,-15,3
-151,1005,131,16,-15,2
-151,990,117,17,-15,1
-151,994,138,15,-18,2
-154,998,134,14,-18,1
-156,989,137,13,-18,-2
-152,994,142,13,-21,2
-164,994,152,12,-22,1
-156,999,145,11,-24,1
-158,989,145,10,-25,2
-154,994,150,11,-24,2
-159,995,138,11,-26,1
-150,1006,142,10,-28,5
-154,1006,134,14,-27,2
-156,1006,146,10,-27,5
-158,1002,125,14,-27,6
-150,994,126,14,-27,5
-150,1015,137,16,-28,6
-152,1000,121,18,-28,6
-142,1015,120,20,-27,8
-156,999,116,21,-28,8
-159,993,138,23,-26,9
-162,1005,122,24,-26,7
-167,1016,134,27,-29,8
-169,1011,131,29,-25,7
-163,1013,138,32,-26,6
-163,1007,133,32,-25,5
-162,1016,121,34,-24,7
-158,1017,114,36,-26,6
-158,1005,120,37,-27,4
-171,1013,133,37,-28,5
-180,1018,115,38,-29,6
-158,1273,139,37,-28,2
-170,1022,117,36,-30,1
-174,1278,146,36,-34,1
-179,1018,139,36,-35,1
-156,1017,139,32,-35,1
-164,1027,131,30,-36,1
-169,1034,134,28,-37,-1
-167,771,121,25,-39,0
-158,1027,123,23,-38,0
-167,1026,128,20,-40,2
-173,1273,144,17,-41,0
-164,1027,144,15,-37,3
-162,1015,152,13,-39,1
-156,1278,132,8,-37,2
-154,1015,137,5,-38,4
-157,1043,134,5,-38,5
-151,1277,137,3,-36,5
-156,771,140,1,-35,7
-152,1026,148,0,-34,7
-148,1278,133,-2,-33,9
-152,1026,133,-4,-30,11
-157,1018,115,-4,-29,14
-158,771,142,-4,-28,14
-152,1022,115,-6,-24,14
-147,1026,144,-7,-24,18
-157,1018,133,-8,-23,20
-148,1013,115,-5,-22,21
-141,772,131,-6,-18,23
-139,768,120,-5,-16,25
-150,1027,129,-5,-16,26
-152,1015,126,-6,-13,29
-133,1021,121,-6,-13,27
-130,1022,126,-2,-11,28
-128,1028,114,-6,-9,31
-129,770,125,-5,-8,29
-142,1273,120,-2,-7,30
-139,1022,120,-6,-7,30
-133,1012,131,-5,-6,33
-128,1018,115,-5,-4,31
-127,1022,114,-5,-5,31
-127,1015,114,-4,-6,28
-135,1016,121,-6,-5,27
-121,1016,123,-8,-3,29
-139,1012,117,-7,-6,26
-139,1023,137,-9,-5,27
-115,1006,131,-8,-6,25
-133,1021,129,-13,-8,26
-127,1013,123,-12,-8,24
-128,1007,123,-13,-8,24
-123,1004,123,-15,-11,23
-121,1012,129,-16,-12,20
-121,1279,131,-18,-12,20
-118,1009,121,-18,-14,21
-117,1005,120,-20,-18,17
-125,1006,125,-22,-18,18
-123,1011,116,-24,-21,15
-119,1004,138,-26,-24,13
-125,1016,132,-28,-24,13
-139,1011,109,-32,-28,9
-128,1007,110,-31,-30,9
-133,1022,126,-31,-31,6
-125,1006,131,-32,-30,7
-123,1018,117,-36,-32,6
-122,1017,126,-35,-32,3
-118,1018,125,-36,-33,1
-118,1016,128,-36,-34,2
-122,1007,123,-35,-31,-1
-123,1011,122,-39,-34,-2
-121,1012,115,-37,-33,-2
-113,1012,116,-40,-32,-5
-127,1002,117,-39,-28,-2
-107,1013,121,-39,-30,-3
-110,1012,102,-41,-26,-6
-130,1013,115,-41,-23,-6
-115,1005,120,-41,-21,-3
-119,1016,117,-43,-18,-5
-122,1021,131,-45,-15,-6
-115,1015,123,-46,-13,-4
-113,1021,126,-43,-11,-6
-115,1013,144,-48,-8,-3
-115,1000,146,-48,-9,-3
-117,1004,129,-49,-6,-2
-118,1016,138,-49,-6,-2
-123,1015,139,-53,-5,-1
-118,1012,144,-52,-3,-2
-133,1009,140,-55,-4,0
-123,1009,145,-57,-3,-1
-133,1004,149,-57,-5,2
-118,1007,157,-58,-3,1
-130,1004,144,-58,-3,2
-127,1017,152,-58,-2,1
-129,999,145,-61,-3,0
-128,1002,140,-60,-1,1
-119,1007,149,-60,0,1
-122,1012,152,-57,0,0
-127,1011,138,-61,3,0
-128,1015,146,-61,4,255
-135,1013,162,-58,1,-1
-128,1016,168,-59,3,-3
-134,1012,152,-58,4,-5
-134,1004,152,-56,4,-5
-128,1005,157,-57,2,-7
-129,1011,150,-56,3,-7
-134,1006,146,-52,0,-11
-129,1000,173,-53,255,-12
-136,1004,172,-52,1,-13
-134,1011,171,-52,0,-14
-133,1002,169,-49,-3,-13
-140,1009,168,-46,-2,-15
-136,1012,179,-45,-3,-17
-133,996,169,-44,-5,-20
-128,995,162,-41,-5,-18
-128,1000,173,-39,-3,-19
-136,1005,177,-39,-6,-20
-140,1004,165,-36,-6,-21
-133,1004,177,-33,-5,-20
-125,990,166,-34,-4,-23
-129,1002,161,-30,-4,-20
-139,994,157,-30,-3,-22
-134,995,157,-27,-1,-21
-127,995,145,-24,-3,-22
-130,993,162,-21,-1,-21
-115,995,157,-19,0,-22
-134,996,149,-18,0,-21
-130,999,150,-16,-256,-20
-122,996,133,-12,-1,-20
-144,999,142,-11,0,-21
-135,1007,161,-9,-2,-22
-135,1009,145,-5,-3,-22
-134,994,155,-4,-4,-22
-142,1002,161,-6,-2,-22
-139,993,156,-3,-2,-24
-118,1002,150,-2,-6,-25
-125,1000,150,-5,-3,-23
-136,996,138,1,-3,-24
-134,993,140,-1,-3,-24
-128,989,142,-4,-3,-27
-128,974,152,-1,-1,-25
-122,990,129,-2,-1,-28
-133,1004,126,-1,2,-27
-133,1005,120,-256,1,-27
-128,996,128,0,2,-27
-122,1006,144,-1,1,-33
-136,994,134,0,2,-30
-139,995,134,-2,255,-32
-135,993,137,-4,-1,-34
-129,990,129,-6,0,-31
-134,998,121,-3,-3,-35
-134,999,148,-8,-2,-36
-130,994,132,-8,-6,-35
-142,998,144,-10,-6,-37
-135,998,117,-11,-5,-38
-122,983,122,-12,-9,-39
-119,1007,132,-12,-10,-38
-140,998,122,-14,-7,-38
-133,988,117,-13,-8,-37
-134,994,121,-13,-8,-40
-140,999,121,-13,-8,-39
-133,990,108,-16,-9,-39
-134,994,126,-16,-7,-39
-134,1000,110,-14,-8,-42
-148,987,116,-13,-10,-40
-122,999,117,-15,-11,-39
-133,998,117,-14,-10,-41
-130,994,120,-13,-12,-40
-133,987,117,-13,-15,-40
-127,995,125,-13,-13,-40
-139,1000,131,-12,-13,-41
-135,1005,110,-11,-16,-42
-136,989,117,-10,-12,-42
-127,999,115,-12,-12,-41
-125,985,115,-10,-11,-40
-133,995,117,-8,-11,-41
-141,1000,106,-7,-10,-40
-145,989,108,-7,-8,-40
-136,990,121,-6,-10,-40
-135,996,121,-3,-8,-43
-140,1000,115,-4,-11,-42
-148,1007,122,-4,-11,-42
-142,1002,123,-2,-11,-42
-151,1002,109,-3,-13,-44
-142,1004,121,-3,-15,-45
-159,1006,134,-3,-13,-44
-141,1004,122,-4,-18,-43
-141,1006,121,-5,-17,-45
-158,1002,122,-7,-19,-46
-156,1002,132,-5,-18,-44
-141,990,126,-7,-17,-46
-145,996,121,-10,-16,-45
-147,999,123,-14,-20,-43
-150,1006,117,-14,-16,-44
-150,993,137,-16,-15,-44
-148,990,125,-18,-14,-42
-140,993,121,-19,-12,-44
-150,1002,131,-22,-12,-42
-145,996,116,-25,-13,-42
-147,989,126,-27,-13,-40
-150,983,129,-29,-10,-38
-152,990,129,-27,-8,-38
-158,993,116,-30,-9,-36
-152,1002,133,-32,-10,-36
-157,1005,125,-32,-8,-36
-147,1006,125,-34,-8,-34
-156,990,133,-34,-11,-36
-154,990,128,-36,-9,-33
-163,994,129,-38,-10,-32
-159,993,140,-37,-12,-33
-158,993,131,-36,-13,-30
-158,999,134,-36,-12,-33
-154,998,112,-37,-13,-32
-157,996,131,-37,-11,-30
-154,999,138,-35,-12,-29
-147,988,129,-34,-13,-31
-147,995,122,-32,-12,-31
-154,993,133,-32,-14,-28
-162,995,133,-29,-11,-29
-156,994,150,-28,-13,-29
-165,998,131,-26,-14,-32
-148,1011,139,-26,-13,-32
-165,994,138,-24,-12,-31
-163,994,140,-23,-17,-32
-174,990,146,-22,-18,-33
-162,998,140,-22,-16,-35
-169,994,129,-21,-20,-35
-167,999,148,-20,-20,-35
-164,1004,132,-19,-22,-36
-167,1002,149,-18,-23,-38
-177,1004,145,-17,-25,-38
-171,994,126,-19,-26,-40
-171,1000,146,-20,-26,-41
-174,1000,142,-19,-29,-41
-157,1016,155,-19,-29,-40
-163,1006,146,-21,-32,-44
-171,999,150,-22,-31,-44
-167,1005,161,-23,-33,-44
-163,1006,150,-27,-30,-46
-167,1004,145,-27,-33,-45
-157,1005,152,-30,-32,-47
-171,1006,146,-32,-31,-43
-177,1005,157,-34,-31,-45
-170,1005,162,-36,-32,-43
-185,1006,166,-36,-30,-43
-174,1009,150,-38,-31,-45
-176,1017,156,-40,-32,-44
-171,1002,166,-41,-29,-43
-176,1012,148,-43,-30,-44
-180,1007,138,-43,-32,-43
-164,1009,154,-43,-29,-44
-173,1011,152,-47,-29,-42
-170,1000,154,-44,-29,-38
-180,1005,154,-47,-28,-39
-157,1000,155,-47,-25,-39
-177,1004,152,-49,-20,-37
-174,988,169,-49,-22,-35
-167,988,149,-49,-18,-31
-165,1005,154,-50,-14,-30
-171,993,165,-50,-11,-25
-177,1004,149,-48,-11,-24
-162,994,160,-50,-7,-22
-156,1000,150,-51,-4,-19
-167,999,154,-51,-2,-18
-162,994,144,-49,0,-15
-165,998,145,-49,1,-11
-167,998,149,-50,3,-10
-164,985,165,-51,5,-6
-169,999,155,-51,4,-6
-163,998,163,-51,2,-3
-174,990,157,-51,5,-2
-158,984,150,-51,5,0
-165,990,157,-49,3,0
-162,993,125,-50,5,2
-162,982,138,-50,2,3
-170,987,134,-51,2,4
-154,982,134,-47,3,5
-150,984,145,-49,5,5
-169,977,132,-49,5,4
-147,982,128,-49,5,5
-152,987,139,-48,7,7
-154,983,148,-47,7,6
-145,970,134,-48,7,6
-145,979,121,-48,10,5
-158,974,133,-48,11,5
-141,973,131,-48,12,6
-142,967,123,-50,13,5
-145,968,139,-49,15,6
-151,967,131,-49,16,6
-136,961,137,-51,19,7
-152,961,132,-51,17,4
-156,955,134,-53,22,4
-144,974,149,-54,19,2
-144,961,128,-54,21,3
-150,960,132,-56,20,4
-157,949,140,-59,22,3
-147,950,129,-59,18,4
-152,970,155,-60,19,1
-144,965,139,-64,18,2
-150,956,150,-65,17,2
-152,976,142,-70,17,0
-148,954,146,-68,15,2
-156,966,148,-72,15,2
-152,949,142,-73,17,1
-151,961,152,-75,20,1
-151,974,155,-74,17,0
-150,955,152,-76,19,2
-154,959,154,-77,20,1
-157,957,148,-78,21,2
-150,959,148,-76,22,1
-148,950,157,-79,25,4
-145,963,165,-77,25,5
-152,955,152,-75,27,6
-150,954,149,-77,29,9
-162,944,156,-76,29,10
-159,951,150,-74,28,10
-157,948,154,-74,30,12
-156,957,148,-70,31,12
-164,956,148,-68,28,10
-174,951,179,-66,29,13
-158,946,157,-65,30,13
-157,961,177,-63,27,15
-163,963,162,-61,24,13
-159,956,172,-60,23,14
-164,963,161,-55,21,14
-177,956,165,-52,18,13
-164,966,161,-50,19,11
-170,963,160,-46,16,13
-179,961,148,-43,16,9
-173,959,162,-41,15,9
-177,960,148,-34,14,9
-185,954,156,-34,13,6
-170,951,154,-31,11,5
-177,956,152,-27,9,4
-173,960,162,-24,10,2
-170,950,166,-23,10,2
-177,959,146,-21,12,1
-167,970,171,-17,10,255
-167,948,172,-18,14,0
-174,965,150,-13,15,0
-174,961,168,-15,17,-3
-163,961,161,-12,16,1
-180,970,165,-12,17,1
-187,970,165,-11,16,0
-177,976,161,-11,20,3
-174,961,174,-11,17,3
-174,963,161,-11,19,3
-177,974,160,-9,21,6
-176,968,171,-11,20,5
-179,963,174,-10,22,7
-187,965,174,-9,23,8
-164,974,165,-10,22,8
-173,965,171,-9,22,14
-182,967,163,-7,21,12
-181,983,149,-7,23,11
-182,976,152,-7,21,14
-167,973,149,-6,24,16
-180,966,146,-7,24,16
-171,982,160,-1,23,17
-167,982,161,-2,23,17
-176,976,140,-256,25,18
-171,984,137,-1,28,17
-179,987,155,2,27,17
-176,989,157,1,27,16
-181,977,146,2,29,18
-180,987,155,8,27,17
-177,978,146,7,27,16
-187,994,144,8,29,17
-179,993,142,8,29,15
-173,987,157,11,23,16
-186,993,152,12,25,15
-179,995,144,11,21,16
-173,990,149,13,20,13
-174,1002,149,15,18,15
-179,989,145,15,15,13
-185,993,140,17,11,15
-170,995,150,17,8,14
-177,996,131,17,6,14
-181,995,140,19,1,11
-164,995,125,18,-2,12
-164,1007,145,21,-2,11
-182,998,123,23,-7,8
-169,1002,132,22,-9,9
-187,1002,131,27,-8,6
-180,998,137,25,-11,7
-180,1000,117,28,-11,5
-163,1005,114,30,-10,4
-163,999,99,31,-9,2
-173,1011,116,31,-10,2
-180,996,114,32,-9,1
-158,1009,117,35,-8,1
-169,1006,94,36,-7,1
-167,1015,86,36,-4,-2
-180,1004,108,36,-3,-2
-174,1004,102,35,-3,-4
-176,1011,122,36,-1,-5
-170,1015,112,34,3,-6
-163,768,106,32,3,-6
-174,1007,102,30,4,-6
-170,1016,104,28,4,-6
-173,1006,98,26,4,-5
-171,1011,105,22,2,-6
-170,1021,102,20,4,-5
-167,1011,106,16,6,-4
-173,1007,102,12,3,-6
-174,1011,117,7,3,-6
-185,1011,93,4,4,-5
-167,1018,109,1,0,-4
-176,1018,100,-2,0,-4
-167,1005,100,-7,0,-1
-169,1016,112,-8,0,-3
-177,1007,123,-10,-1,1
-174,1013,114,-15,-2,0
-181,1016,104,-16,-4,-2
-174,1017,104,-20,-4,-1
-176,1018,114,-21,-4,0
-163,1024,105,-22,-2,2
-169,1017,102,-24,-2,1
-179,1027,93,-26,-1,1
-170,1022,99,-25,2,2
-171,1011,98,-27,5,1
-170,1011,108,-29,7,4
-154,1018,108,-29,9,0
-157,771,126,-30,13,3
-164,1015,122,-28,16,4
-159,1024,121,-31,17,5
-156,1022,122,-31,18,5
-163,1021,115,-30,20,4
-163,1021,125,-32,21,7
-148,1021,121,-30,20,9
-158,1274,132,-33,22,11
-147,1013,126,-33,19,10
-164,1011,132,-30,21,11
-169,772,120,-31,21,14
-156,1012,121,-33,23,14
-156,768,128,-33,21,17
-162,1028,128,-33,21,15
-163,1015,125,-32,21,15
-159,1022,140,-35,18,17
-152,1011,126,-35,15,17
-162,1021,128,-35,14,17
-157,1009,139,-35,13,16
-165,1012,131,-38,10,18
-162,999,123,-35,9,16
-156,1012,140,-37,10,17
-152,1006,116,-40,7,15
-150,1007,134,-38,6,15
-144,1004,132,-39,6,13
-154,1006,131,-40,4,13
-162,1009,140,-41,1,9
-158,1012,144,-40,2,9
-157,1011,142,-41,3,7
-163,995,129,-43,-1,3
-162,1002,134,-44,2,2
-179,1007,134,-45,-3,2
-159,1015,126,-46,-1,-1
-159,1016,134,-46,-3,-2
-159,1009,150,-47,-8,-3
-162,1015,149,-48,-7,-4
-152,1007,145,-49,-7,-6
-169,1006,142,-52,-9,-7
-157,1015,138,-52,-7,-8
-163,999,149,-54,-7,-7
-142,998,134,-58,-7,-8
-159,1004,137,-59,-9,-7
-145,990,149,-60,-8,-7
-144,1000,149,-60,-6,-3
-154,993,146,-63,-5,-2
-158,993,145,-65,-2,0
-152,987,140,-66,-1,0
-136,998,144,-68,1,1
-151,999,171,-68,4,5
-150,998,142,-72,5,7
-142,988,150,-70,8,8
-139,988,139,-70,13,10
-139,988,152,-71,12,13
-140,999,166,-73,15,12
-147,1002,150,-73,15,15
-163,998,142,-75,16,15
-151,998,162,-73,18,16
-152,998,155,-72,17,17
-158,996,161,-75,16,18
-144,1002,162,-74,15,20
-142,998,140,-74,14,18
-148,989,144,-74,13,20
-152,996,152,-72,13,18
-140,994,162,-73,12,19
-157,989,155,-72,9,19
-150,1006,169,-70,8,19
-154,996,149,-69,10,16
-152,1012,168,-70,7,17
-151,999,155,-67,8,18
-156,999,163,-67,8,15
-145,994,157,-67,10,17
-150,990,161,-65,7,16
-145,987,152,-66,10,15
-136,982,152,-65,13,16
-150,995,150,-65,12,15
-139,982,168,-64,11,16
-141,982,156,-65,13,15
-129,987,165,-65,18,15
-136,983,144,-64,17,14
-133,989,168,-64,19,14
-133,993,166,-60,20,15
-142,983,165,-63,19,14
-134,989,154,-62,21,15
-142,979,157,-61,20,14
-150,994,163,-62,20,16
-136,984,161,-60,20,14
-145,993,162,-61,19,15
-142,978,162,-59,18,15
-152,994,155,-62,16,14
-144,993,165,-60,14,13
-144,993,165,-61,13,11
-140,994,157,-60,12,10
-147,1006,169,-60,10,6
-147,998,169,-60,9,7
-154,993,172,-59,8,2
-152,994,163,-59,6,2
-154,990,163,-58,5,-1
-151,1002,160,-58,6,-4
-145,988,166,-56,3,-6
-147,1005,165,-57,2,-9
-151,998,166,-57,3,-10
-157,1000,146,-55,1,-12
-157,1000,163,-55,1,-15
-157,996,168,-54,4,-17
-154,1000,142,-54,3,-19
-158,998,172,-53,0,-22
-159,1004,173,-53,1,-22
-147,998,165,-53,0,-24
-162,990,142,-53,-4,-24
-147,987,165,-54,-3,-26
